"trial_type","trial_index","time_elapsed","internal_node_id","gender","age","attentionScore","participantID","experimentStartTime","experimentEndTime","browser","rt","stimulus","response","trial_category","mobile","success","sizeTempo","colorTempo","rectBaseSize","sizeChangeRate","sizeChangeAmount","rectChangedSize","baseColor","colorHueChangeAmount","colorHueChangeRate","colorChangedColor","sizeChangeLog","colorChangeLog","keypressLog","displayDurationSet","attendedFeature","testedFeaturePair","displayDurationActualized","trial","value"
"pavlovia","0","1480","0.0-0.0","female","62","89","p1.1_6637b21240220c2517fffa1a","November 29, 2025 at 3:36 PM","November 29, 2025 at 3:52 PM","{""browser"":""Chrome"",""version"":""142""}","","","","","","","","","","","","","","","","","","","","","","","","",""
"html-button-response","1","6636","0.0-1.0","female","62","89","p1.1_6637b21240220c2517fffa1a","November 29, 2025 at 3:36 PM","November 29, 2025 at 3:52 PM","{""browser"":""Chrome"",""version"":""142""}","5153","[""<div class='jspsych-display-element' style='justify-content: center; align-items: center; min-height: 80vh; width: 100%;'><div style='display: inline-block; margin: 0 auto; color: black; font-size: 2.5vh; line-height: 3.2vh; padding: 10px 200px 10px 200px; text-align: left'>Please note that this experiment is only designed to work from a computer or laptop.  Please <strong> do not </strong> continue if you are using a phone, tablet, or other mobile device.  If you are on a phone, tablet or other mobile device you will need to return to Prolific and click \""stop without completing\"".  <br> <br> If you are currently seeing this page from a laptop or computer, please click on the \""Continue\"" button.</div></div>""]","0","introInstructions","false","","","","","","","","","","","","","","","","","","","",""
"html-keyboard-response","2","23225","0.0-2.0","female","62","89","p1.1_6637b21240220c2517fffa1a","November 29, 2025 at 3:36 PM","November 29, 2025 at 3:52 PM","{""browser"":""Chrome"",""version"":""142""}","16588","<div class='jspsych-display-element' style='justify-content: center; align-items: center; min-height: 80vh; width: 100%;'><div style='display: inline-block; margin: 0 auto; color: black; font-size: 2.5vh; line-height: 3.2vh; padding: 10px 200px 10px 200px; text-align: left'>We wanted to provide a heads-up that the end of the experiment will consist of an anonymous survey with multiple questions. A few questions are open-ended questions where you need to type 1-2 sentences. Sometimes participants do not like answering open-ended questions and tend to quit a survey once they see such questions. <br> <br> If a sizable number of people quit a survey halfway, the responses will no longer be useful. Our research depends on good quality responses. Thus, please make sure you do not mind open-ended questions before continuing with experiment.<br> <br> <p><i><strong>Press 'y'</strong> on your keyboard if you agree to answer the open-ended questions at the end of the experiment.</i><br></div></div>","y","introInstructions","","","","","","","","","","","","","","","","","","","","",""
"fullscreen","3","35136","0.0-3.0","female","62","89","p1.1_6637b21240220c2517fffa1a","November 29, 2025 at 3:36 PM","November 29, 2025 at 3:52 PM","{""browser"":""Chrome"",""version"":""142""}","","","","introInstructions","","true","","","","","","","","","","","","","","","","","","",""
"html-button-response","4","78953","0.0-4.0","female","62","89","p1.1_6637b21240220c2517fffa1a","November 29, 2025 at 3:36 PM","November 29, 2025 at 3:52 PM","{""browser"":""Chrome"",""version"":""142""}","43815","<div class='jspsych-display-element' style='justify-content: center; align-items: center; min-height: 80vh; width: 100%;'><div style='display: inline-block; margin: 0 auto; color: black; font-size: 2.5vh; line-height: 3.2vh; padding: 10px 200px 10px 200px; text-align: left'>Hello! Thank you for volunteering to help out with our study. Please take a moment to adjust your seating so that you can comfortably watch the monitor and use the keyboard. Feel free to dim the lights as well.<br><br>Close the door or do whatever is necessary to <b>minimize disturbance during the experiment</b>. Please also take a moment to silence your phone so that you are not interrupted by any messages mid-experiment. Do not switch to any other tabs or windows until you are complete.<br><br>We will now go over the instructions. Please read these carefully, as you will not be able to complete this experiment without following them precisely.<br><br>A ""Next"" button will appear at the bottom of the screen on each page. This button will be greyed out at the beginning and will be activated after a few seconds (giving you time to read the instructions on each page). Please read everything on each page carefully before clicking on the ""Next"" button to continue to the next page.</div></div>","0","introInstructions","","","","","","","","","","","","","","","","","","","","",""
"instructionPractice","5","91003","0.0-5.0","female","62","89","p1.1_6637b21240220c2517fffa1a","November 29, 2025 at 3:36 PM","November 29, 2025 at 3:52 PM","{""browser"":""Chrome"",""version"":""142""}","","","","introInstructions","","","999999","300","[50,100]","1.2","[10,20]","[60,120]","hsl(210, 100%, 50%)","80","2.625","hsl(290, 100%, 50%)","[]","[{""timeMs"":315,""colorHsl"":""hsl(290, 100%, 50%)""},{""timeMs"":615,""colorHsl"":""hsl(210, 100%, 50%)""},{""timeMs"":915,""colorHsl"":""hsl(290, 100%, 50%)""},{""timeMs"":1215,""colorHsl"":""hsl(210, 100%, 50%)""},{""timeMs"":1531,""colorHsl"":""hsl(290, 100%, 50%)""},{""timeMs"":1831,""colorHsl"":""hsl(210, 100%, 50%)""},{""timeMs"":2148,""colorHsl"":""hsl(290, 100%, 50%)""},{""timeMs"":2465,""colorHsl"":""hsl(210, 100%, 50%)""},{""timeMs"":2765,""colorHsl"":""hsl(290, 100%, 50%)""},{""timeMs"":3081,""colorHsl"":""hsl(210, 100%, 50%)""},{""timeMs"":3381,""colorHsl"":""hsl(290, 100%, 50%)""},{""timeMs"":3681,""colorHsl"":""hsl(210, 100%, 50%)""},{""timeMs"":3982,""colorHsl"":""hsl(290, 100%, 50%)""},{""timeMs"":4282,""colorHsl"":""hsl(210, 100%, 50%)""},{""timeMs"":4582,""colorHsl"":""hsl(290, 100%, 50%)""},{""timeMs"":4882,""colorHsl"":""hsl(210, 100%, 50%)""},{""timeMs"":5182,""colorHsl"":""hsl(290, 100%, 50%)""},{""timeMs"":5498,""colorHsl"":""hsl(210, 100%, 50%)""},{""timeMs"":5798,""colorHsl"":""hsl(290, 100%, 50%)""},{""timeMs"":6098,""colorHsl"":""hsl(210, 100%, 50%)""},{""timeMs"":6415,""colorHsl"":""hsl(290, 100%, 50%)""},{""timeMs"":6732,""colorHsl"":""hsl(210, 100%, 50%)""},{""timeMs"":7032,""colorHsl"":""hsl(290, 100%, 50%)""},{""timeMs"":7348,""colorHsl"":""hsl(210, 100%, 50%)""},{""timeMs"":7648,""colorHsl"":""hsl(290, 100%, 50%)""},{""timeMs"":7948,""colorHsl"":""hsl(210, 100%, 50%)""},{""timeMs"":8248,""colorHsl"":""hsl(290, 100%, 50%)""},{""timeMs"":8548,""colorHsl"":""hsl(210, 100%, 50%)""},{""timeMs"":8865,""colorHsl"":""hsl(290, 100%, 50%)""},{""timeMs"":9165,""colorHsl"":""hsl(210, 100%, 50%)""},{""timeMs"":9465,""colorHsl"":""hsl(290, 100%, 50%)""},{""timeMs"":9765,""colorHsl"":""hsl(210, 100%, 50%)""},{""timeMs"":10082,""colorHsl"":""hsl(290, 100%, 50%)""},{""timeMs"":10382,""colorHsl"":""hsl(210, 100%, 50%)""},{""timeMs"":10682,""colorHsl"":""hsl(290, 100%, 50%)""},{""timeMs"":10982,""colorHsl"":""hsl(210, 100%, 50%)""},{""timeMs"":11298,""colorHsl"":""hsl(290, 100%, 50%)""},{""timeMs"":11615,""colorHsl"":""hsl(210, 100%, 50%)""}]","[]","5000","","","","",""
"instructionPractice","6","99534","0.0-6.0","female","62","89","p1.1_6637b21240220c2517fffa1a","November 29, 2025 at 3:36 PM","November 29, 2025 at 3:52 PM","{""browser"":""Chrome"",""version"":""142""}","","","","introInstructions","","","300","999999","[50,100]","1.2","[10,20]","[60,120]","hsl(210, 100%, 50%)","80","2.625","hsl(290, 100%, 50%)","[{""timeMs"":301,""rectSize"":[60,120]},{""timeMs"":601,""rectSize"":[50,100]},{""timeMs"":901,""rectSize"":[60,120]},{""timeMs"":1218,""rectSize"":[50,100]},{""timeMs"":1518,""rectSize"":[60,120]},{""timeMs"":1834,""rectSize"":[50,100]},{""timeMs"":2134,""rectSize"":[60,120]},{""timeMs"":2434,""rectSize"":[50,100]},{""timeMs"":2734,""rectSize"":[60,120]},{""timeMs"":3034,""rectSize"":[50,100]},{""timeMs"":3351,""rectSize"":[60,120]},{""timeMs"":3651,""rectSize"":[50,100]},{""timeMs"":3951,""rectSize"":[60,120]},{""timeMs"":4251,""rectSize"":[50,100]},{""timeMs"":4551,""rectSize"":[60,120]},{""timeMs"":4868,""rectSize"":[50,100]},{""timeMs"":5168,""rectSize"":[60,120]},{""timeMs"":5468,""rectSize"":[50,100]},{""timeMs"":5784,""rectSize"":[60,120]},{""timeMs"":6084,""rectSize"":[50,100]},{""timeMs"":6384,""rectSize"":[60,120]},{""timeMs"":6701,""rectSize"":[50,100]},{""timeMs"":7001,""rectSize"":[60,120]},{""timeMs"":7301,""rectSize"":[50,100]},{""timeMs"":7601,""rectSize"":[60,120]},{""timeMs"":7917,""rectSize"":[50,100]},{""timeMs"":8234,""rectSize"":[60,120]}]","[]","[]","5000","","","","",""
"html-button-response","7","111051","0.0-7.0","female","62","89","p1.1_6637b21240220c2517fffa1a","November 29, 2025 at 3:36 PM","November 29, 2025 at 3:52 PM","{""browser"":""Chrome"",""version"":""142""}","11516","<div class='jspsych-display-element' style='justify-content: center; align-items: center; min-height: 80vh; width: 100%;'><div style='display: inline-block; margin: 0 auto; color: black; font-size: 2.5vh; line-height: 3.2vh; padding: 10px 200px 10px 200px; text-align: left'>In the examples so far, the rectangle alternated only one feature at a time (either its color or its size) rhythmically. In the actual experiment, both the color and the size will alternate together.<br><br>Let's see an example of this on the next page.</div></div>","0","introInstructions","","","","","","","","","","","","","","","","","","","","",""
"rhytmicFeatureChangeTask","8","119456","0.0-8.0","female","62","89","p1.1_6637b21240220c2517fffa1a","November 29, 2025 at 3:36 PM","November 29, 2025 at 3:52 PM","{""browser"":""Chrome"",""version"":""142""}","","","","introInstructions","","","320","280","[50,100]","1.2","[10,20]","[60,120]","hsl(210, 100%, 50%)","80","2.625","hsl(290, 100%, 50%)","[{""timeMs"":336,""rectSize"":[60,120]},{""timeMs"":669,""rectSize"":[50,100]},{""timeMs"":1002,""rectSize"":[60,120]},{""timeMs"":1336,""rectSize"":[50,100]},{""timeMs"":1669,""rectSize"":[60,120]},{""timeMs"":2002,""rectSize"":[50,100]},{""timeMs"":2336,""rectSize"":[60,120]},{""timeMs"":2669,""rectSize"":[50,100]},{""timeMs"":3002,""rectSize"":[60,120]},{""timeMs"":3336,""rectSize"":[50,100]},{""timeMs"":3669,""rectSize"":[60,120]},{""timeMs"":4003,""rectSize"":[50,100]},{""timeMs"":4336,""rectSize"":[60,120]},{""timeMs"":4669,""rectSize"":[50,100]},{""timeMs"":5003,""rectSize"":[60,120]},{""timeMs"":5336,""rectSize"":[50,100]},{""timeMs"":5669,""rectSize"":[60,120]},{""timeMs"":6002,""rectSize"":[50,100]},{""timeMs"":6336,""rectSize"":[60,120]},{""timeMs"":6669,""rectSize"":[50,100]},{""timeMs"":7002,""rectSize"":[60,120]},{""timeMs"":7336,""rectSize"":[50,100]},{""timeMs"":7669,""rectSize"":[60,120]}]","[{""timeMs"":286,""colorHsl"":""hsl(290, 100%, 50%)""},{""timeMs"":569,""colorHsl"":""hsl(210, 100%, 50%)""},{""timeMs"":852,""colorHsl"":""hsl(290, 100%, 50%)""},{""timeMs"":1136,""colorHsl"":""hsl(210, 100%, 50%)""},{""timeMs"":1419,""colorHsl"":""hsl(290, 100%, 50%)""},{""timeMs"":1702,""colorHsl"":""hsl(210, 100%, 50%)""},{""timeMs"":1986,""colorHsl"":""hsl(290, 100%, 50%)""},{""timeMs"":2269,""colorHsl"":""hsl(210, 100%, 50%)""},{""timeMs"":2552,""colorHsl"":""hsl(290, 100%, 50%)""},{""timeMs"":2836,""colorHsl"":""hsl(210, 100%, 50%)""},{""timeMs"":3119,""colorHsl"":""hsl(290, 100%, 50%)""},{""timeMs"":3402,""colorHsl"":""hsl(210, 100%, 50%)""},{""timeMs"":3686,""colorHsl"":""hsl(290, 100%, 50%)""},{""timeMs"":3969,""colorHsl"":""hsl(210, 100%, 50%)""},{""timeMs"":4253,""colorHsl"":""hsl(290, 100%, 50%)""},{""timeMs"":4535,""colorHsl"":""hsl(210, 100%, 50%)""},{""timeMs"":4819,""colorHsl"":""hsl(290, 100%, 50%)""},{""timeMs"":5103,""colorHsl"":""hsl(210, 100%, 50%)""},{""timeMs"":5386,""colorHsl"":""hsl(290, 100%, 50%)""},{""timeMs"":5669,""colorHsl"":""hsl(210, 100%, 50%)""},{""timeMs"":5952,""colorHsl"":""hsl(290, 100%, 50%)""},{""timeMs"":6236,""colorHsl"":""hsl(210, 100%, 50%)""},{""timeMs"":6519,""colorHsl"":""hsl(290, 100%, 50%)""},{""timeMs"":6802,""colorHsl"":""hsl(210, 100%, 50%)""},{""timeMs"":7086,""colorHsl"":""hsl(290, 100%, 50%)""},{""timeMs"":7369,""colorHsl"":""hsl(210, 100%, 50%)""},{""timeMs"":7653,""colorHsl"":""hsl(290, 100%, 50%)""},{""timeMs"":7936,""colorHsl"":""hsl(210, 100%, 50%)""}]","[]","8000","color","color-size","8002.6","",""
"html-button-response","9","163569","0.0-9.0","female","62","89","p1.1_6637b21240220c2517fffa1a","November 29, 2025 at 3:36 PM","November 29, 2025 at 3:52 PM","{""browser"":""Chrome"",""version"":""142""}","44112","<div class='jspsych-display-element' style='justify-content: center; align-items: center; min-height: 80vh; width: 100%;'><div style='display: inline-block; margin: 0 auto; color: black; font-size: 2.5vh; line-height: 3.2vh; padding: 10px 200px 10px 200px; text-align: left'>At the beginning of each display, you will be told which feature (color or size) to pay attention to. That is the feature you must keep track of (that feature's rhytmic changes). Whenever the instructed feature changes, you should respond by pressing the Space key. You must try to ignore the other feature, even though it may also be changing at the same time.<br><br>If you are instructed to pay attention to the color, you should press the Space key every time the rectangle changes to purple, and you should try to ignore any size changes throughout the whole display. If you are instructed to pay attention to the size, you should press the Space key every time the rectangle grows larger, and you should try to ignore color changes.<br><br>Because the alternations can be quite fast, you should try to press the Space key as quickly as possible when the relevant change occurs.<br><br>Let's practice first with the color feature.</div></div>","0","instructions","","","","","","","","","","","","","","","","","","","","",""
"html-button-response","10","169169","0.0-10.0","female","62","89","p1.1_6637b21240220c2517fffa1a","November 29, 2025 at 3:36 PM","November 29, 2025 at 3:52 PM","{""browser"":""Chrome"",""version"":""142""}","5197","<div class='jspsych-display-element' style='justify-content: center; align-items: center; min-height: 80vh; width: 100%;'><div style='display: inline-block; margin: 0 auto; color: black; font-size: 2.5vh; line-height: 3.2vh; padding: 10px 200px 10px 200px; text-align: left'>Pay attention to the <b>Color</b> change (press the Space key everytime the rectangle turns purple as soon as possible) and ignore the <b>Size</b> change.<br><br>Click on the 'Start' button to start the display. Since the display will start immediately,you should be ready to press the 'Space' key as soon as the rectangle starts alternating its color.</div></div>","0","introInstructions","","","","","","","","","","","","","","","","","","","","",""
"rhytmicFeatureChangeTask","11","189572","0.0-11.0","female","62","89","p1.1_6637b21240220c2517fffa1a","November 29, 2025 at 3:36 PM","November 29, 2025 at 3:52 PM","{""browser"":""Chrome"",""version"":""142""}","","","","introInstructions","","","500","700","[50,100]","1.2","[10,20]","[60,120]","hsl(210, 100%, 50%)","80","2.625","hsl(290, 100%, 50%)","[{""timeMs"":501,""rectSize"":[60,120]},{""timeMs"":1001,""rectSize"":[50,100]},{""timeMs"":1517,""rectSize"":[60,120]},{""timeMs"":2017,""rectSize"":[50,100]},{""timeMs"":2517,""rectSize"":[60,120]},{""timeMs"":3034,""rectSize"":[50,100]},{""timeMs"":3534,""rectSize"":[60,120]},{""timeMs"":4034,""rectSize"":[50,100]},{""timeMs"":4551,""rectSize"":[60,120]},{""timeMs"":5051,""rectSize"":[50,100]},{""timeMs"":5551,""rectSize"":[60,120]},{""timeMs"":6051,""rectSize"":[50,100]},{""timeMs"":6568,""rectSize"":[60,120]},{""timeMs"":7084,""rectSize"":[50,100]},{""timeMs"":7584,""rectSize"":[60,120]},{""timeMs"":8084,""rectSize"":[50,100]},{""timeMs"":8584,""rectSize"":[60,120]},{""timeMs"":9101,""rectSize"":[50,100]},{""timeMs"":9601,""rectSize"":[60,120]},{""timeMs"":10101,""rectSize"":[50,100]},{""timeMs"":10601,""rectSize"":[60,120]},{""timeMs"":11117,""rectSize"":[50,100]},{""timeMs"":11618,""rectSize"":[60,120]},{""timeMs"":12118,""rectSize"":[50,100]},{""timeMs"":12618,""rectSize"":[60,120]},{""timeMs"":13134,""rectSize"":[50,100]},{""timeMs"":13651,""rectSize"":[60,120]},{""timeMs"":14151,""rectSize"":[50,100]},{""timeMs"":14667,""rectSize"":[60,120]},{""timeMs"":15167,""rectSize"":[50,100]},{""timeMs"":15668,""rectSize"":[60,120]},{""timeMs"":16168,""rectSize"":[50,100]},{""timeMs"":16668,""rectSize"":[60,120]},{""timeMs"":17184,""rectSize"":[50,100]},{""timeMs"":17684,""rectSize"":[60,120]},{""timeMs"":18184,""rectSize"":[50,100]},{""timeMs"":18684,""rectSize"":[60,120]},{""timeMs"":19201,""rectSize"":[50,100]},{""timeMs"":19717,""rectSize"":[60,120]}]","[{""timeMs"":701,""colorHsl"":""hsl(290, 100%, 50%)""},{""timeMs"":1417,""colorHsl"":""hsl(210, 100%, 50%)""},{""timeMs"":2134,""colorHsl"":""hsl(290, 100%, 50%)""},{""timeMs"":2834,""colorHsl"":""hsl(210, 100%, 50%)""},{""timeMs"":3534,""colorHsl"":""hsl(290, 100%, 50%)""},{""timeMs"":4234,""colorHsl"":""hsl(210, 100%, 50%)""},{""timeMs"":4951,""colorHsl"":""hsl(290, 100%, 50%)""},{""timeMs"":5651,""colorHsl"":""hsl(210, 100%, 50%)""},{""timeMs"":6368,""colorHsl"":""hsl(290, 100%, 50%)""},{""timeMs"":7084,""colorHsl"":""hsl(210, 100%, 50%)""},{""timeMs"":7784,""colorHsl"":""hsl(290, 100%, 50%)""},{""timeMs"":8484,""colorHsl"":""hsl(210, 100%, 50%)""},{""timeMs"":9184,""colorHsl"":""hsl(290, 100%, 50%)""},{""timeMs"":9901,""colorHsl"":""hsl(210, 100%, 50%)""},{""timeMs"":10601,""colorHsl"":""hsl(290, 100%, 50%)""},{""timeMs"":11301,""colorHsl"":""hsl(210, 100%, 50%)""},{""timeMs"":12001,""colorHsl"":""hsl(290, 100%, 50%)""},{""timeMs"":12718,""colorHsl"":""hsl(210, 100%, 50%)""},{""timeMs"":13434,""colorHsl"":""hsl(290, 100%, 50%)""},{""timeMs"":14151,""colorHsl"":""hsl(210, 100%, 50%)""},{""timeMs"":14851,""colorHsl"":""hsl(290, 100%, 50%)""},{""timeMs"":15551,""colorHsl"":""hsl(210, 100%, 50%)""},{""timeMs"":16251,""colorHsl"":""hsl(290, 100%, 50%)""},{""timeMs"":16951,""colorHsl"":""hsl(210, 100%, 50%)""},{""timeMs"":17651,""colorHsl"":""hsl(290, 100%, 50%)""},{""timeMs"":18368,""colorHsl"":""hsl(210, 100%, 50%)""},{""timeMs"":19068,""colorHsl"":""hsl(290, 100%, 50%)""},{""timeMs"":19784,""colorHsl"":""hsl(210, 100%, 50%)""}]","[{""time_ms"":1128},{""time_ms"":1786},{""time_ms"":2485},{""time_ms"":3161},{""time_ms"":3785},{""time_ms"":4388},{""time_ms"":4902},{""time_ms"":5514},{""time_ms"":6098},{""time_ms"":6786},{""time_ms"":7374},{""time_ms"":8047},{""time_ms"":8658},{""time_ms"":9383},{""time_ms"":10100},{""time_ms"":10880},{""time_ms"":11547},{""time_ms"":12241},{""time_ms"":12920},{""time_ms"":13702},{""time_ms"":14457},{""time_ms"":15225},{""time_ms"":15934},{""time_ms"":16636},{""time_ms"":17414},{""time_ms"":18058},{""time_ms"":18756},{""time_ms"":19484}]","20000","color","color-size","20000.6","",""
"html-button-response","12","196068","0.0-12.0","female","62","89","p1.1_6637b21240220c2517fffa1a","November 29, 2025 at 3:36 PM","November 29, 2025 at 3:52 PM","{""browser"":""Chrome"",""version"":""142""}","6495","<div class='jspsych-display-element' style='justify-content: center; align-items: center; min-height: 80vh; width: 100%;'><div style='display: inline-block; margin: 0 auto; color: black; font-size: 2.5vh; line-height: 3.2vh; padding: 10px 200px 10px 200px; text-align: left'>Pay attention to the <b>Size</b> change (press the Space key everytime the rectangle grows larger as soon as possible) and ignore the <b>Color</b> change.<br><br>Click on the 'Start' button to start the display.</div></div>","0","introInstructions","","","","","","","","","","","","","","","","","","","","",""
"rhytmicFeatureChangeTask","13","216473","0.0-13.0","female","62","89","p1.1_6637b21240220c2517fffa1a","November 29, 2025 at 3:36 PM","November 29, 2025 at 3:52 PM","{""browser"":""Chrome"",""version"":""142""}","","","","introInstructions","","","700","500","[50,100]","1.2","[10,20]","[60,120]","hsl(210, 100%, 50%)","80","2.625","hsl(290, 100%, 50%)","[{""timeMs"":703,""rectSize"":[60,120]},{""timeMs"":1403,""rectSize"":[50,100]},{""timeMs"":2120,""rectSize"":[60,120]},{""timeMs"":2820,""rectSize"":[50,100]},{""timeMs"":3520,""rectSize"":[60,120]},{""timeMs"":4235,""rectSize"":[50,100]},{""timeMs"":4953,""rectSize"":[60,120]},{""timeMs"":5670,""rectSize"":[50,100]},{""timeMs"":6385,""rectSize"":[60,120]},{""timeMs"":7087,""rectSize"":[50,100]},{""timeMs"":7787,""rectSize"":[60,120]},{""timeMs"":8487,""rectSize"":[50,100]},{""timeMs"":9187,""rectSize"":[60,120]},{""timeMs"":9903,""rectSize"":[50,100]},{""timeMs"":10620,""rectSize"":[60,120]},{""timeMs"":11320,""rectSize"":[50,100]},{""timeMs"":12036,""rectSize"":[60,120]},{""timeMs"":12736,""rectSize"":[50,100]},{""timeMs"":13436,""rectSize"":[60,120]},{""timeMs"":14153,""rectSize"":[50,100]},{""timeMs"":14870,""rectSize"":[60,120]},{""timeMs"":15570,""rectSize"":[50,100]},{""timeMs"":16286,""rectSize"":[60,120]},{""timeMs"":17003,""rectSize"":[50,100]},{""timeMs"":17703,""rectSize"":[60,120]},{""timeMs"":18419,""rectSize"":[50,100]},{""timeMs"":19120,""rectSize"":[60,120]},{""timeMs"":19837,""rectSize"":[50,100]}]","[{""timeMs"":503,""colorHsl"":""hsl(290, 100%, 50%)""},{""timeMs"":1003,""colorHsl"":""hsl(210, 100%, 50%)""},{""timeMs"":1520,""colorHsl"":""hsl(290, 100%, 50%)""},{""timeMs"":2020,""colorHsl"":""hsl(210, 100%, 50%)""},{""timeMs"":2520,""colorHsl"":""hsl(290, 100%, 50%)""},{""timeMs"":3020,""colorHsl"":""hsl(210, 100%, 50%)""},{""timeMs"":3520,""colorHsl"":""hsl(290, 100%, 50%)""},{""timeMs"":4020,""colorHsl"":""hsl(210, 100%, 50%)""},{""timeMs"":4536,""colorHsl"":""hsl(290, 100%, 50%)""},{""timeMs"":5053,""colorHsl"":""hsl(210, 100%, 50%)""},{""timeMs"":5553,""colorHsl"":""hsl(290, 100%, 50%)""},{""timeMs"":6053,""colorHsl"":""hsl(210, 100%, 50%)""},{""timeMs"":6553,""colorHsl"":""hsl(290, 100%, 50%)""},{""timeMs"":7053,""colorHsl"":""hsl(210, 100%, 50%)""},{""timeMs"":7553,""colorHsl"":""hsl(290, 100%, 50%)""},{""timeMs"":8053,""colorHsl"":""hsl(210, 100%, 50%)""},{""timeMs"":8570,""colorHsl"":""hsl(290, 100%, 50%)""},{""timeMs"":9087,""colorHsl"":""hsl(210, 100%, 50%)""},{""timeMs"":9587,""colorHsl"":""hsl(290, 100%, 50%)""},{""timeMs"":10087,""colorHsl"":""hsl(210, 100%, 50%)""},{""timeMs"":10603,""colorHsl"":""hsl(290, 100%, 50%)""},{""timeMs"":11103,""colorHsl"":""hsl(210, 100%, 50%)""},{""timeMs"":11620,""colorHsl"":""hsl(290, 100%, 50%)""},{""timeMs"":12120,""colorHsl"":""hsl(210, 100%, 50%)""},{""timeMs"":12620,""colorHsl"":""hsl(290, 100%, 50%)""},{""timeMs"":13120,""colorHsl"":""hsl(210, 100%, 50%)""},{""timeMs"":13620,""colorHsl"":""hsl(290, 100%, 50%)""},{""timeMs"":14120,""colorHsl"":""hsl(210, 100%, 50%)""},{""timeMs"":14620,""colorHsl"":""hsl(290, 100%, 50%)""},{""timeMs"":15120,""colorHsl"":""hsl(210, 100%, 50%)""},{""timeMs"":15636,""colorHsl"":""hsl(290, 100%, 50%)""},{""timeMs"":16137,""colorHsl"":""hsl(210, 100%, 50%)""},{""timeMs"":16653,""colorHsl"":""hsl(290, 100%, 50%)""},{""timeMs"":17153,""colorHsl"":""hsl(210, 100%, 50%)""},{""timeMs"":17653,""colorHsl"":""hsl(290, 100%, 50%)""},{""timeMs"":18153,""colorHsl"":""hsl(210, 100%, 50%)""},{""timeMs"":18653,""colorHsl"":""hsl(290, 100%, 50%)""},{""timeMs"":19153,""colorHsl"":""hsl(210, 100%, 50%)""},{""timeMs"":19670,""colorHsl"":""hsl(290, 100%, 50%)""}]","[{""time_ms"":1065},{""time_ms"":2408},{""time_ms"":3852},{""time_ms"":5298},{""time_ms"":6771},{""time_ms"":8157},{""time_ms"":9524},{""time_ms"":11030},{""time_ms"":12454},{""time_ms"":13881},{""time_ms"":15393},{""time_ms"":16709},{""time_ms"":18316},{""time_ms"":19734}]","20000","size","color-size","20003.1","",""
"html-button-response","14","240620","0.0-14.0","female","62","89","p1.1_6637b21240220c2517fffa1a","November 29, 2025 at 3:36 PM","November 29, 2025 at 3:52 PM","{""browser"":""Chrome"",""version"":""142""}","24146","<div class='jspsych-display-element' style='justify-content: center; align-items: center; min-height: 80vh; width: 100%;'><div style='display: inline-block; margin: 0 auto; color: black; font-size: 2.5vh; line-height: 3.2vh; padding: 10px 200px 10px 200px; text-align: left'>That's it. You will just do this same task for about 10 minutes. The rhythm of alternation will vary from one display to the next. Sometimes the color alternation will be faster than the size alternation, sometimes the size will be faster than the color.<br><br>Regardless of these variations, your task remains the same. If you are asked to pay attention to the color, press the Space key everytime the rectangle changes to purple as soon as possible and ignore the size changes. If you are asked to pay attention to the size, press the Space key everytime the rectangle grows larger as soon as possible and ignore the color changes.<br><br>You may find it difficult at times to ignore the other feature, and that is completely normal. The experiment is designed to be challenging in this way. Please do your best to stay focused for the whole task, as your responses are only useful if you give your full attention to the instructed feature.<br><br>Please always use your dominant hand to press the 'Space' key. You can now start the experiment when you are ready.</div></div>","0","introInstructions","","","","","","","","","","","","","","","","","","","","",""
"html-keyboard-response","15","241424","0.0-15.0-0.0","female","62","89","p1.1_6637b21240220c2517fffa1a","November 29, 2025 at 3:36 PM","November 29, 2025 at 3:52 PM","{""browser"":""Chrome"",""version"":""142""}","null","[""<div class='jspsych-display-element' style='justify-content: center; align-items: center; min-height: 80vh; width: 100%;'><div style='display: inline-block; margin: 0 auto; color: black; font-size: 2.5vh; line-height: 3.2vh; padding: 10px 200px 10px 200px; text-align: left'><p><div style='color: red; display: inline-block;'> <h1>Track Size</h1> </div> changes and <div style='color: red; display: inline-block;'> <h1>ignore Color</h1> </div> changes.</p><p>Press Enter to start the display.</p></div></div>""]","null","attendedFeatureInstr","","","","","","","","","","","","","","","","","","","","",""
"html-keyboard-response","16","248734","0.0-15.0-1.0","female","62","89","p1.1_6637b21240220c2517fffa1a","November 29, 2025 at 3:36 PM","November 29, 2025 at 3:52 PM","{""browser"":""Chrome"",""version"":""142""}","7310","[""<div class='jspsych-display-element' style='justify-content: center; align-items: center; min-height: 80vh; width: 100%;'><div style='display: inline-block; margin: 0 auto; color: black; font-size: 2.5vh; line-height: 3.2vh; padding: 10px 200px 10px 200px; text-align: left'><p><div style='color: red; display: inline-block;'> <h1>Track Size</h1> </div> changes and <div style='color: red; display: inline-block;'> <h1>ignore Color</h1> </div> changes.</p><p>Press Enter to start the display.</p></div></div>""]","enter","trialStartWaiting","","","","","","","","","","","","","","","","","","","","",""
"html-keyboard-response","17","249648","0.0-16.0","female","62","89","p1.1_6637b21240220c2517fffa1a","November 29, 2025 at 3:36 PM","November 29, 2025 at 3:52 PM","{""browser"":""Chrome"",""version"":""142""}","null","<p style='color: white; font-size: 50px; text-align: center'>+</p>","null","ITI","","","","","","","","","","","","","","","","","","","","",""
"rhytmicFeatureChangeTask","18","279656","0.0-17.0","female","62","89","p1.1_6637b21240220c2517fffa1a","November 29, 2025 at 3:36 PM","November 29, 2025 at 3:52 PM","{""browser"":""Chrome"",""version"":""142""}","","","","test","","","450","500","[50,100]","1.2","[10,20]","[60,120]","hsl(210, 100%, 50%)","80","2.625","hsl(290, 100%, 50%)","[{""timeMs"":458,""rectSize"":[60,120]},{""timeMs"":908,""rectSize"":[50,100]},{""timeMs"":1358,""rectSize"":[60,120]},{""timeMs"":1808,""rectSize"":[50,100]},{""timeMs"":2258,""rectSize"":[60,120]},{""timeMs"":2708,""rectSize"":[50,100]},{""timeMs"":3175,""rectSize"":[60,120]},{""timeMs"":3641,""rectSize"":[50,100]},{""timeMs"":4091,""rectSize"":[60,120]},{""timeMs"":4541,""rectSize"":[50,100]},{""timeMs"":5007,""rectSize"":[60,120]},{""timeMs"":5458,""rectSize"":[50,100]},{""timeMs"":5924,""rectSize"":[60,120]},{""timeMs"":6391,""rectSize"":[50,100]},{""timeMs"":6857,""rectSize"":[60,120]},{""timeMs"":7308,""rectSize"":[50,100]},{""timeMs"":7758,""rectSize"":[60,120]},{""timeMs"":8208,""rectSize"":[50,100]},{""timeMs"":8674,""rectSize"":[60,120]},{""timeMs"":9125,""rectSize"":[50,100]},{""timeMs"":9575,""rectSize"":[60,120]},{""timeMs"":10025,""rectSize"":[50,100]},{""timeMs"":10491,""rectSize"":[60,120]},{""timeMs"":10941,""rectSize"":[50,100]},{""timeMs"":11408,""rectSize"":[60,120]},{""timeMs"":11858,""rectSize"":[50,100]},{""timeMs"":12308,""rectSize"":[60,120]},{""timeMs"":12758,""rectSize"":[50,100]},{""timeMs"":13224,""rectSize"":[60,120]},{""timeMs"":13674,""rectSize"":[50,100]},{""timeMs"":14124,""rectSize"":[60,120]},{""timeMs"":14574,""rectSize"":[50,100]},{""timeMs"":15025,""rectSize"":[60,120]},{""timeMs"":15491,""rectSize"":[50,100]},{""timeMs"":15941,""rectSize"":[60,120]},{""timeMs"":16391,""rectSize"":[50,100]},{""timeMs"":16841,""rectSize"":[60,120]},{""timeMs"":17308,""rectSize"":[50,100]},{""timeMs"":17774,""rectSize"":[60,120]},{""timeMs"":18224,""rectSize"":[50,100]},{""timeMs"":18674,""rectSize"":[60,120]},{""timeMs"":19124,""rectSize"":[50,100]},{""timeMs"":19575,""rectSize"":[60,120]},{""timeMs"":20041,""rectSize"":[50,100]},{""timeMs"":20508,""rectSize"":[60,120]},{""timeMs"":20958,""rectSize"":[50,100]},{""timeMs"":21408,""rectSize"":[60,120]},{""timeMs"":21874,""rectSize"":[50,100]},{""timeMs"":22324,""rectSize"":[60,120]},{""timeMs"":22791,""rectSize"":[50,100]},{""timeMs"":23241,""rectSize"":[60,120]},{""timeMs"":23691,""rectSize"":[50,100]},{""timeMs"":24141,""rectSize"":[60,120]},{""timeMs"":24607,""rectSize"":[50,100]},{""timeMs"":25058,""rectSize"":[60,120]},{""timeMs"":25508,""rectSize"":[50,100]},{""timeMs"":25974,""rectSize"":[60,120]},{""timeMs"":26424,""rectSize"":[50,100]},{""timeMs"":26874,""rectSize"":[60,120]},{""timeMs"":27324,""rectSize"":[50,100]},{""timeMs"":27775,""rectSize"":[60,120]},{""timeMs"":28225,""rectSize"":[50,100]},{""timeMs"":28691,""rectSize"":[60,120]},{""timeMs"":29157,""rectSize"":[50,100]},{""timeMs"":29608,""rectSize"":[60,120]}]","[{""timeMs"":508,""colorHsl"":""hsl(290, 100%, 50%)""},{""timeMs"":1008,""colorHsl"":""hsl(210, 100%, 50%)""},{""timeMs"":1508,""colorHsl"":""hsl(290, 100%, 50%)""},{""timeMs"":2008,""colorHsl"":""hsl(210, 100%, 50%)""},{""timeMs"":2525,""colorHsl"":""hsl(290, 100%, 50%)""},{""timeMs"":3025,""colorHsl"":""hsl(210, 100%, 50%)""},{""timeMs"":3525,""colorHsl"":""hsl(290, 100%, 50%)""},{""timeMs"":4025,""colorHsl"":""hsl(210, 100%, 50%)""},{""timeMs"":4541,""colorHsl"":""hsl(290, 100%, 50%)""},{""timeMs"":5058,""colorHsl"":""hsl(210, 100%, 50%)""},{""timeMs"":5558,""colorHsl"":""hsl(290, 100%, 50%)""},{""timeMs"":6058,""colorHsl"":""hsl(210, 100%, 50%)""},{""timeMs"":6558,""colorHsl"":""hsl(290, 100%, 50%)""},{""timeMs"":7058,""colorHsl"":""hsl(210, 100%, 50%)""},{""timeMs"":7558,""colorHsl"":""hsl(290, 100%, 50%)""},{""timeMs"":8058,""colorHsl"":""hsl(210, 100%, 50%)""},{""timeMs"":8558,""colorHsl"":""hsl(290, 100%, 50%)""},{""timeMs"":9058,""colorHsl"":""hsl(210, 100%, 50%)""},{""timeMs"":9558,""colorHsl"":""hsl(290, 100%, 50%)""},{""timeMs"":10058,""colorHsl"":""hsl(210, 100%, 50%)""},{""timeMs"":10558,""colorHsl"":""hsl(290, 100%, 50%)""},{""timeMs"":11074,""colorHsl"":""hsl(210, 100%, 50%)""},{""timeMs"":11591,""colorHsl"":""hsl(290, 100%, 50%)""},{""timeMs"":12091,""colorHsl"":""hsl(210, 100%, 50%)""},{""timeMs"":12591,""colorHsl"":""hsl(290, 100%, 50%)""},{""timeMs"":13091,""colorHsl"":""hsl(210, 100%, 50%)""},{""timeMs"":13591,""colorHsl"":""hsl(290, 100%, 50%)""},{""timeMs"":14108,""colorHsl"":""hsl(210, 100%, 50%)""},{""timeMs"":14608,""colorHsl"":""hsl(290, 100%, 50%)""},{""timeMs"":15125,""colorHsl"":""hsl(210, 100%, 50%)""},{""timeMs"":15625,""colorHsl"":""hsl(290, 100%, 50%)""},{""timeMs"":16125,""colorHsl"":""hsl(210, 100%, 50%)""},{""timeMs"":16625,""colorHsl"":""hsl(290, 100%, 50%)""},{""timeMs"":17141,""colorHsl"":""hsl(210, 100%, 50%)""},{""timeMs"":17641,""colorHsl"":""hsl(290, 100%, 50%)""},{""timeMs"":18141,""colorHsl"":""hsl(210, 100%, 50%)""},{""timeMs"":18657,""colorHsl"":""hsl(290, 100%, 50%)""},{""timeMs"":19157,""colorHsl"":""hsl(210, 100%, 50%)""},{""timeMs"":19658,""colorHsl"":""hsl(290, 100%, 50%)""},{""timeMs"":20175,""colorHsl"":""hsl(210, 100%, 50%)""},{""timeMs"":20691,""colorHsl"":""hsl(290, 100%, 50%)""},{""timeMs"":21191,""colorHsl"":""hsl(210, 100%, 50%)""},{""timeMs"":21691,""colorHsl"":""hsl(290, 100%, 50%)""},{""timeMs"":22208,""colorHsl"":""hsl(210, 100%, 50%)""},{""timeMs"":22724,""colorHsl"":""hsl(290, 100%, 50%)""},{""timeMs"":23224,""colorHsl"":""hsl(210, 100%, 50%)""},{""timeMs"":23724,""colorHsl"":""hsl(290, 100%, 50%)""},{""timeMs"":24224,""colorHsl"":""hsl(210, 100%, 50%)""},{""timeMs"":24724,""colorHsl"":""hsl(290, 100%, 50%)""},{""timeMs"":25224,""colorHsl"":""hsl(210, 100%, 50%)""},{""timeMs"":25724,""colorHsl"":""hsl(290, 100%, 50%)""},{""timeMs"":26224,""colorHsl"":""hsl(210, 100%, 50%)""},{""timeMs"":26724,""colorHsl"":""hsl(290, 100%, 50%)""},{""timeMs"":27225,""colorHsl"":""hsl(210, 100%, 50%)""},{""timeMs"":27741,""colorHsl"":""hsl(290, 100%, 50%)""},{""timeMs"":28241,""colorHsl"":""hsl(210, 100%, 50%)""},{""timeMs"":28758,""colorHsl"":""hsl(290, 100%, 50%)""},{""timeMs"":29274,""colorHsl"":""hsl(210, 100%, 50%)""},{""timeMs"":29774,""colorHsl"":""hsl(290, 100%, 50%)""}]","[{""time_ms"":792},{""time_ms"":1727},{""time_ms"":2577},{""time_ms"":3576},{""time_ms"":4546},{""time_ms"":5446},{""time_ms"":6386},{""time_ms"":7292},{""time_ms"":8192},{""time_ms"":9094},{""time_ms"":9958},{""time_ms"":10808},{""time_ms"":11710},{""time_ms"":12721},{""time_ms"":13557},{""time_ms"":14440},{""time_ms"":15338},{""time_ms"":16259},{""time_ms"":17146},{""time_ms"":18023},{""time_ms"":18940},{""time_ms"":19859},{""time_ms"":20807},{""time_ms"":21710},{""time_ms"":22640},{""time_ms"":23626},{""time_ms"":24547},{""time_ms"":25503},{""time_ms"":26274},{""time_ms"":27188},{""time_ms"":28003},{""time_ms"":28958},{""time_ms"":29828}]","30000","size","color-size","30007.5","1",""
"html-keyboard-response","19","280057","0.0-18.0-0.0","female","62","89","p1.1_6637b21240220c2517fffa1a","November 29, 2025 at 3:36 PM","November 29, 2025 at 3:52 PM","{""browser"":""Chrome"",""version"":""142""}","null","[""<div class='jspsych-display-element' style='justify-content: center; align-items: center; min-height: 80vh; width: 100%;'><div style='display: inline-block; margin: 0 auto; color: black; font-size: 2.5vh; line-height: 3.2vh; padding: 10px 200px 10px 200px; text-align: left'><p><div style='color: red; display: inline-block;'> <h1>Track Size</h1> </div> changes and <div style='color: red; display: inline-block;'> <h1>ignore Color</h1> </div> changes.</p><p>Press Enter to start the display.</p></div></div>""]","null","attendedFeatureInstr","","","","","","","","","","","","","","","","","","","","",""
"html-keyboard-response","20","285936","0.0-18.0-1.0","female","62","89","p1.1_6637b21240220c2517fffa1a","November 29, 2025 at 3:36 PM","November 29, 2025 at 3:52 PM","{""browser"":""Chrome"",""version"":""142""}","5879","[""<div class='jspsych-display-element' style='justify-content: center; align-items: center; min-height: 80vh; width: 100%;'><div style='display: inline-block; margin: 0 auto; color: black; font-size: 2.5vh; line-height: 3.2vh; padding: 10px 200px 10px 200px; text-align: left'><p><div style='color: red; display: inline-block;'> <h1>Track Size</h1> </div> changes and <div style='color: red; display: inline-block;'> <h1>ignore Color</h1> </div> changes.</p><p>Press Enter to start the display.</p></div></div>""]","enter","trialStartWaiting","","","","","","","","","","","","","","","","","","","","",""
"html-keyboard-response","21","286695","0.0-19.0","female","62","89","p1.1_6637b21240220c2517fffa1a","November 29, 2025 at 3:36 PM","November 29, 2025 at 3:52 PM","{""browser"":""Chrome"",""version"":""142""}","null","<p style='color: white; font-size: 50px; text-align: center'>+</p>","null","ITI","","","","","","","","","","","","","","","","","","","","",""
"rhytmicFeatureChangeTask","22","316706","0.0-20.0","female","62","89","p1.1_6637b21240220c2517fffa1a","November 29, 2025 at 3:36 PM","November 29, 2025 at 3:52 PM","{""browser"":""Chrome"",""version"":""142""}","","","","test","","","500","450","[50,100]","1.2","[10,20]","[60,120]","hsl(210, 100%, 50%)","80","2.625","hsl(290, 100%, 50%)","[{""timeMs"":511,""rectSize"":[60,120]},{""timeMs"":1027,""rectSize"":[50,100]},{""timeMs"":1527,""rectSize"":[60,120]},{""timeMs"":2027,""rectSize"":[50,100]},{""timeMs"":2544,""rectSize"":[60,120]},{""timeMs"":3044,""rectSize"":[50,100]},{""timeMs"":3561,""rectSize"":[60,120]},{""timeMs"":4077,""rectSize"":[50,100]},{""timeMs"":4577,""rectSize"":[60,120]},{""timeMs"":5077,""rectSize"":[50,100]},{""timeMs"":5594,""rectSize"":[60,120]},{""timeMs"":6110,""rectSize"":[50,100]},{""timeMs"":6611,""rectSize"":[60,120]},{""timeMs"":7111,""rectSize"":[50,100]},{""timeMs"":7611,""rectSize"":[60,120]},{""timeMs"":8111,""rectSize"":[50,100]},{""timeMs"":8611,""rectSize"":[60,120]},{""timeMs"":9111,""rectSize"":[50,100]},{""timeMs"":9611,""rectSize"":[60,120]},{""timeMs"":10127,""rectSize"":[50,100]},{""timeMs"":10644,""rectSize"":[60,120]},{""timeMs"":11144,""rectSize"":[50,100]},{""timeMs"":11644,""rectSize"":[60,120]},{""timeMs"":12144,""rectSize"":[50,100]},{""timeMs"":12644,""rectSize"":[60,120]},{""timeMs"":13144,""rectSize"":[50,100]},{""timeMs"":13644,""rectSize"":[60,120]},{""timeMs"":14144,""rectSize"":[50,100]},{""timeMs"":14661,""rectSize"":[60,120]},{""timeMs"":15161,""rectSize"":[50,100]},{""timeMs"":15661,""rectSize"":[60,120]},{""timeMs"":16177,""rectSize"":[50,100]},{""timeMs"":16694,""rectSize"":[60,120]},{""timeMs"":17194,""rectSize"":[50,100]},{""timeMs"":17694,""rectSize"":[60,120]},{""timeMs"":18194,""rectSize"":[50,100]},{""timeMs"":18694,""rectSize"":[60,120]},{""timeMs"":19194,""rectSize"":[50,100]},{""timeMs"":19694,""rectSize"":[60,120]},{""timeMs"":20194,""rectSize"":[50,100]},{""timeMs"":20711,""rectSize"":[60,120]},{""timeMs"":21211,""rectSize"":[50,100]},{""timeMs"":21727,""rectSize"":[60,120]},{""timeMs"":22244,""rectSize"":[50,100]},{""timeMs"":22744,""rectSize"":[60,120]},{""timeMs"":23244,""rectSize"":[50,100]},{""timeMs"":23744,""rectSize"":[60,120]},{""timeMs"":24244,""rectSize"":[50,100]},{""timeMs"":24744,""rectSize"":[60,120]},{""timeMs"":25244,""rectSize"":[50,100]},{""timeMs"":25744,""rectSize"":[60,120]},{""timeMs"":26244,""rectSize"":[50,100]},{""timeMs"":26744,""rectSize"":[60,120]},{""timeMs"":27244,""rectSize"":[50,100]},{""timeMs"":27744,""rectSize"":[60,120]},{""timeMs"":28260,""rectSize"":[50,100]},{""timeMs"":28760,""rectSize"":[60,120]},{""timeMs"":29277,""rectSize"":[50,100]},{""timeMs"":29777,""rectSize"":[60,120]}]","[{""timeMs"":461,""colorHsl"":""hsl(290, 100%, 50%)""},{""timeMs"":927,""colorHsl"":""hsl(210, 100%, 50%)""},{""timeMs"":1377,""colorHsl"":""hsl(290, 100%, 50%)""},{""timeMs"":1844,""colorHsl"":""hsl(210, 100%, 50%)""},{""timeMs"":2310,""colorHsl"":""hsl(290, 100%, 50%)""},{""timeMs"":2761,""colorHsl"":""hsl(210, 100%, 50%)""},{""timeMs"":3211,""colorHsl"":""hsl(290, 100%, 50%)""},{""timeMs"":3661,""colorHsl"":""hsl(210, 100%, 50%)""},{""timeMs"":4127,""colorHsl"":""hsl(290, 100%, 50%)""},{""timeMs"":4577,""colorHsl"":""hsl(210, 100%, 50%)""},{""timeMs"":5027,""colorHsl"":""hsl(290, 100%, 50%)""},{""timeMs"":5494,""colorHsl"":""hsl(210, 100%, 50%)""},{""timeMs"":5944,""colorHsl"":""hsl(290, 100%, 50%)""},{""timeMs"":6394,""colorHsl"":""hsl(210, 100%, 50%)""},{""timeMs"":6844,""colorHsl"":""hsl(290, 100%, 50%)""},{""timeMs"":7311,""colorHsl"":""hsl(210, 100%, 50%)""},{""timeMs"":7761,""colorHsl"":""hsl(290, 100%, 50%)""},{""timeMs"":8211,""colorHsl"":""hsl(210, 100%, 50%)""},{""timeMs"":8661,""colorHsl"":""hsl(290, 100%, 50%)""},{""timeMs"":9111,""colorHsl"":""hsl(210, 100%, 50%)""},{""timeMs"":9561,""colorHsl"":""hsl(290, 100%, 50%)""},{""timeMs"":10027,""colorHsl"":""hsl(210, 100%, 50%)""},{""timeMs"":10494,""colorHsl"":""hsl(290, 100%, 50%)""},{""timeMs"":10944,""colorHsl"":""hsl(210, 100%, 50%)""},{""timeMs"":11394,""colorHsl"":""hsl(290, 100%, 50%)""},{""timeMs"":11844,""colorHsl"":""hsl(210, 100%, 50%)""},{""timeMs"":12294,""colorHsl"":""hsl(290, 100%, 50%)""},{""timeMs"":12744,""colorHsl"":""hsl(210, 100%, 50%)""},{""timeMs"":13194,""colorHsl"":""hsl(290, 100%, 50%)""},{""timeMs"":13644,""colorHsl"":""hsl(210, 100%, 50%)""},{""timeMs"":14094,""colorHsl"":""hsl(290, 100%, 50%)""},{""timeMs"":14561,""colorHsl"":""hsl(210, 100%, 50%)""},{""timeMs"":15011,""colorHsl"":""hsl(290, 100%, 50%)""},{""timeMs"":15461,""colorHsl"":""hsl(210, 100%, 50%)""},{""timeMs"":15911,""colorHsl"":""hsl(290, 100%, 50%)""},{""timeMs"":16377,""colorHsl"":""hsl(210, 100%, 50%)""},{""timeMs"":16827,""colorHsl"":""hsl(290, 100%, 50%)""},{""timeMs"":17277,""colorHsl"":""hsl(210, 100%, 50%)""},{""timeMs"":17727,""colorHsl"":""hsl(290, 100%, 50%)""},{""timeMs"":18194,""colorHsl"":""hsl(210, 100%, 50%)""},{""timeMs"":18644,""colorHsl"":""hsl(290, 100%, 50%)""},{""timeMs"":19094,""colorHsl"":""hsl(210, 100%, 50%)""},{""timeMs"":19544,""colorHsl"":""hsl(290, 100%, 50%)""},{""timeMs"":19994,""colorHsl"":""hsl(210, 100%, 50%)""},{""timeMs"":20461,""colorHsl"":""hsl(290, 100%, 50%)""},{""timeMs"":20911,""colorHsl"":""hsl(210, 100%, 50%)""},{""timeMs"":21361,""colorHsl"":""hsl(290, 100%, 50%)""},{""timeMs"":21811,""colorHsl"":""hsl(210, 100%, 50%)""},{""timeMs"":22277,""colorHsl"":""hsl(290, 100%, 50%)""},{""timeMs"":22744,""colorHsl"":""hsl(210, 100%, 50%)""},{""timeMs"":23194,""colorHsl"":""hsl(290, 100%, 50%)""},{""timeMs"":23644,""colorHsl"":""hsl(210, 100%, 50%)""},{""timeMs"":24094,""colorHsl"":""hsl(290, 100%, 50%)""},{""timeMs"":24544,""colorHsl"":""hsl(210, 100%, 50%)""},{""timeMs"":24994,""colorHsl"":""hsl(290, 100%, 50%)""},{""timeMs"":25444,""colorHsl"":""hsl(210, 100%, 50%)""},{""timeMs"":25911,""colorHsl"":""hsl(290, 100%, 50%)""},{""timeMs"":26361,""colorHsl"":""hsl(210, 100%, 50%)""},{""timeMs"":26827,""colorHsl"":""hsl(290, 100%, 50%)""},{""timeMs"":27294,""colorHsl"":""hsl(210, 100%, 50%)""},{""timeMs"":27761,""colorHsl"":""hsl(290, 100%, 50%)""},{""timeMs"":28227,""colorHsl"":""hsl(210, 100%, 50%)""},{""timeMs"":28677,""colorHsl"":""hsl(290, 100%, 50%)""},{""timeMs"":29127,""colorHsl"":""hsl(210, 100%, 50%)""},{""timeMs"":29577,""colorHsl"":""hsl(290, 100%, 50%)""}]","[{""time_ms"":824},{""time_ms"":1790},{""time_ms"":2762},{""time_ms"":3706},{""time_ms"":4689},{""time_ms"":5654},{""time_ms"":6674},{""time_ms"":7877},{""time_ms"":8825},{""time_ms"":9828},{""time_ms"":10757},{""time_ms"":11829},{""time_ms"":12841},{""time_ms"":13860},{""time_ms"":14891},{""time_ms"":15877},{""time_ms"":16917},{""time_ms"":17889},{""time_ms"":19140},{""time_ms"":19974},{""time_ms"":20874},{""time_ms"":21792},{""time_ms"":22744},{""time_ms"":23611},{""time_ms"":24824},{""time_ms"":25949},{""time_ms"":26976},{""time_ms"":27940},{""time_ms"":28945},{""time_ms"":29979}]","30000","size","color-size","30010.1","2",""
"html-keyboard-response","23","317108","0.0-21.0-0.0","female","62","89","p1.1_6637b21240220c2517fffa1a","November 29, 2025 at 3:36 PM","November 29, 2025 at 3:52 PM","{""browser"":""Chrome"",""version"":""142""}","null","[""<div class='jspsych-display-element' style='justify-content: center; align-items: center; min-height: 80vh; width: 100%;'><div style='display: inline-block; margin: 0 auto; color: black; font-size: 2.5vh; line-height: 3.2vh; padding: 10px 200px 10px 200px; text-align: left'><p><div style='color: red; display: inline-block;'> <h1>Track Size</h1> </div> changes and <div style='color: red; display: inline-block;'> <h1>ignore Color</h1> </div> changes.</p><p>Press Enter to start the display.</p></div></div>""]","null","attendedFeatureInstr","","","","","","","","","","","","","","","","","","","","",""
"html-keyboard-response","24","320708","0.0-21.0-1.0","female","62","89","p1.1_6637b21240220c2517fffa1a","November 29, 2025 at 3:36 PM","November 29, 2025 at 3:52 PM","{""browser"":""Chrome"",""version"":""142""}","3599","[""<div class='jspsych-display-element' style='justify-content: center; align-items: center; min-height: 80vh; width: 100%;'><div style='display: inline-block; margin: 0 auto; color: black; font-size: 2.5vh; line-height: 3.2vh; padding: 10px 200px 10px 200px; text-align: left'><p><div style='color: red; display: inline-block;'> <h1>Track Size</h1> </div> changes and <div style='color: red; display: inline-block;'> <h1>ignore Color</h1> </div> changes.</p><p>Press Enter to start the display.</p></div></div>""]","enter","trialStartWaiting","","","","","","","","","","","","","","","","","","","","",""
"html-keyboard-response","25","321490","0.0-22.0","female","62","89","p1.1_6637b21240220c2517fffa1a","November 29, 2025 at 3:36 PM","November 29, 2025 at 3:52 PM","{""browser"":""Chrome"",""version"":""142""}","null","<p style='color: white; font-size: 50px; text-align: center'>+</p>","null","ITI","","","","","","","","","","","","","","","","","","","","",""
"rhytmicFeatureChangeTask","26","351506","0.0-23.0","female","62","89","p1.1_6637b21240220c2517fffa1a","November 29, 2025 at 3:36 PM","November 29, 2025 at 3:52 PM","{""browser"":""Chrome"",""version"":""142""}","","","","test","","","400","350","[50,100]","1.2","[10,20]","[60,120]","hsl(210, 100%, 50%)","80","2.625","hsl(290, 100%, 50%)","[{""timeMs"":415,""rectSize"":[60,120]},{""timeMs"":815,""rectSize"":[50,100]},{""timeMs"":1215,""rectSize"":[60,120]},{""timeMs"":1616,""rectSize"":[50,100]},{""timeMs"":2016,""rectSize"":[60,120]},{""timeMs"":2432,""rectSize"":[50,100]},{""timeMs"":2832,""rectSize"":[60,120]},{""timeMs"":3232,""rectSize"":[50,100]},{""timeMs"":3633,""rectSize"":[60,120]},{""timeMs"":4049,""rectSize"":[50,100]},{""timeMs"":4449,""rectSize"":[60,120]},{""timeMs"":4866,""rectSize"":[50,100]},{""timeMs"":5282,""rectSize"":[60,120]},{""timeMs"":5699,""rectSize"":[50,100]},{""timeMs"":6099,""rectSize"":[60,120]},{""timeMs"":6499,""rectSize"":[50,100]},{""timeMs"":6899,""rectSize"":[60,120]},{""timeMs"":7315,""rectSize"":[50,100]},{""timeMs"":7716,""rectSize"":[60,120]},{""timeMs"":8116,""rectSize"":[50,100]},{""timeMs"":8516,""rectSize"":[60,120]},{""timeMs"":8916,""rectSize"":[50,100]},{""timeMs"":9332,""rectSize"":[60,120]},{""timeMs"":9733,""rectSize"":[50,100]},{""timeMs"":10149,""rectSize"":[60,120]},{""timeMs"":10549,""rectSize"":[50,100]},{""timeMs"":10949,""rectSize"":[60,120]},{""timeMs"":11365,""rectSize"":[50,100]},{""timeMs"":11766,""rectSize"":[60,120]},{""timeMs"":12182,""rectSize"":[50,100]},{""timeMs"":12582,""rectSize"":[60,120]},{""timeMs"":12982,""rectSize"":[50,100]},{""timeMs"":13382,""rectSize"":[60,120]},{""timeMs"":13782,""rectSize"":[50,100]},{""timeMs"":14182,""rectSize"":[60,120]},{""timeMs"":14599,""rectSize"":[50,100]},{""timeMs"":15016,""rectSize"":[60,120]},{""timeMs"":15416,""rectSize"":[50,100]},{""timeMs"":15832,""rectSize"":[60,120]},{""timeMs"":16232,""rectSize"":[50,100]},{""timeMs"":16632,""rectSize"":[60,120]},{""timeMs"":17032,""rectSize"":[50,100]},{""timeMs"":17449,""rectSize"":[60,120]},{""timeMs"":17849,""rectSize"":[50,100]},{""timeMs"":18265,""rectSize"":[60,120]},{""timeMs"":18665,""rectSize"":[50,100]},{""timeMs"":19065,""rectSize"":[60,120]},{""timeMs"":19465,""rectSize"":[50,100]},{""timeMs"":19866,""rectSize"":[60,120]},{""timeMs"":20266,""rectSize"":[50,100]},{""timeMs"":20666,""rectSize"":[60,120]},{""timeMs"":21066,""rectSize"":[50,100]},{""timeMs"":21466,""rectSize"":[60,120]},{""timeMs"":21882,""rectSize"":[50,100]},{""timeMs"":22282,""rectSize"":[60,120]},{""timeMs"":22682,""rectSize"":[50,100]},{""timeMs"":23099,""rectSize"":[60,120]},{""timeMs"":23515,""rectSize"":[50,100]},{""timeMs"":23915,""rectSize"":[60,120]},{""timeMs"":24315,""rectSize"":[50,100]},{""timeMs"":24715,""rectSize"":[60,120]},{""timeMs"":25115,""rectSize"":[50,100]},{""timeMs"":25515,""rectSize"":[60,120]},{""timeMs"":25916,""rectSize"":[50,100]},{""timeMs"":26332,""rectSize"":[60,120]},{""timeMs"":26732,""rectSize"":[50,100]},{""timeMs"":27132,""rectSize"":[60,120]},{""timeMs"":27532,""rectSize"":[50,100]},{""timeMs"":27932,""rectSize"":[60,120]},{""timeMs"":28333,""rectSize"":[50,100]},{""timeMs"":28749,""rectSize"":[60,120]},{""timeMs"":29149,""rectSize"":[50,100]},{""timeMs"":29565,""rectSize"":[60,120]},{""timeMs"":29965,""rectSize"":[50,100]}]","[{""timeMs"":366,""colorHsl"":""hsl(290, 100%, 50%)""},{""timeMs"":716,""colorHsl"":""hsl(210, 100%, 50%)""},{""timeMs"":1082,""colorHsl"":""hsl(290, 100%, 50%)""},{""timeMs"":1432,""colorHsl"":""hsl(210, 100%, 50%)""},{""timeMs"":1782,""colorHsl"":""hsl(290, 100%, 50%)""},{""timeMs"":2132,""colorHsl"":""hsl(210, 100%, 50%)""},{""timeMs"":2483,""colorHsl"":""hsl(290, 100%, 50%)""},{""timeMs"":2849,""colorHsl"":""hsl(210, 100%, 50%)""},{""timeMs"":3199,""colorHsl"":""hsl(290, 100%, 50%)""},{""timeMs"":3549,""colorHsl"":""hsl(210, 100%, 50%)""},{""timeMs"":3899,""colorHsl"":""hsl(290, 100%, 50%)""},{""timeMs"":4249,""colorHsl"":""hsl(210, 100%, 50%)""},{""timeMs"":4599,""colorHsl"":""hsl(290, 100%, 50%)""},{""timeMs"":4966,""colorHsl"":""hsl(210, 100%, 50%)""},{""timeMs"":5332,""colorHsl"":""hsl(290, 100%, 50%)""},{""timeMs"":5699,""colorHsl"":""hsl(210, 100%, 50%)""},{""timeMs"":6065,""colorHsl"":""hsl(290, 100%, 50%)""},{""timeMs"":6415,""colorHsl"":""hsl(210, 100%, 50%)""},{""timeMs"":6765,""colorHsl"":""hsl(290, 100%, 50%)""},{""timeMs"":7115,""colorHsl"":""hsl(210, 100%, 50%)""},{""timeMs"":7466,""colorHsl"":""hsl(290, 100%, 50%)""},{""timeMs"":7816,""colorHsl"":""hsl(210, 100%, 50%)""},{""timeMs"":8166,""colorHsl"":""hsl(290, 100%, 50%)""},{""timeMs"":8516,""colorHsl"":""hsl(210, 100%, 50%)""},{""timeMs"":8866,""colorHsl"":""hsl(290, 100%, 50%)""},{""timeMs"":9216,""colorHsl"":""hsl(210, 100%, 50%)""},{""timeMs"":9566,""colorHsl"":""hsl(290, 100%, 50%)""},{""timeMs"":9933,""colorHsl"":""hsl(210, 100%, 50%)""},{""timeMs"":10283,""colorHsl"":""hsl(290, 100%, 50%)""},{""timeMs"":10649,""colorHsl"":""hsl(210, 100%, 50%)""},{""timeMs"":10999,""colorHsl"":""hsl(290, 100%, 50%)""},{""timeMs"":11365,""colorHsl"":""hsl(210, 100%, 50%)""},{""timeMs"":11715,""colorHsl"":""hsl(290, 100%, 50%)""},{""timeMs"":12066,""colorHsl"":""hsl(210, 100%, 50%)""},{""timeMs"":12432,""colorHsl"":""hsl(290, 100%, 50%)""},{""timeMs"":12782,""colorHsl"":""hsl(210, 100%, 50%)""},{""timeMs"":13132,""colorHsl"":""hsl(290, 100%, 50%)""},{""timeMs"":13482,""colorHsl"":""hsl(210, 100%, 50%)""},{""timeMs"":13832,""colorHsl"":""hsl(290, 100%, 50%)""},{""timeMs"":14182,""colorHsl"":""hsl(210, 100%, 50%)""},{""timeMs"":14549,""colorHsl"":""hsl(290, 100%, 50%)""},{""timeMs"":14916,""colorHsl"":""hsl(210, 100%, 50%)""},{""timeMs"":15266,""colorHsl"":""hsl(290, 100%, 50%)""},{""timeMs"":15632,""colorHsl"":""hsl(210, 100%, 50%)""},{""timeMs"":15983,""colorHsl"":""hsl(290, 100%, 50%)""},{""timeMs"":16349,""colorHsl"":""hsl(210, 100%, 50%)""},{""timeMs"":16699,""colorHsl"":""hsl(290, 100%, 50%)""},{""timeMs"":17049,""colorHsl"":""hsl(210, 100%, 50%)""},{""timeMs"":17416,""colorHsl"":""hsl(290, 100%, 50%)""},{""timeMs"":17782,""colorHsl"":""hsl(210, 100%, 50%)""},{""timeMs"":18132,""colorHsl"":""hsl(290, 100%, 50%)""},{""timeMs"":18499,""colorHsl"":""hsl(210, 100%, 50%)""},{""timeMs"":18849,""colorHsl"":""hsl(290, 100%, 50%)""},{""timeMs"":19199,""colorHsl"":""hsl(210, 100%, 50%)""},{""timeMs"":19549,""colorHsl"":""hsl(290, 100%, 50%)""},{""timeMs"":19899,""colorHsl"":""hsl(210, 100%, 50%)""},{""timeMs"":20249,""colorHsl"":""hsl(290, 100%, 50%)""},{""timeMs"":20599,""colorHsl"":""hsl(210, 100%, 50%)""},{""timeMs"":20949,""colorHsl"":""hsl(290, 100%, 50%)""},{""timeMs"":21299,""colorHsl"":""hsl(210, 100%, 50%)""},{""timeMs"":21649,""colorHsl"":""hsl(290, 100%, 50%)""},{""timeMs"":21999,""colorHsl"":""hsl(210, 100%, 50%)""},{""timeMs"":22349,""colorHsl"":""hsl(290, 100%, 50%)""},{""timeMs"":22699,""colorHsl"":""hsl(210, 100%, 50%)""},{""timeMs"":23049,""colorHsl"":""hsl(290, 100%, 50%)""},{""timeMs"":23415,""colorHsl"":""hsl(210, 100%, 50%)""},{""timeMs"":23765,""colorHsl"":""hsl(290, 100%, 50%)""},{""timeMs"":24115,""colorHsl"":""hsl(210, 100%, 50%)""},{""timeMs"":24465,""colorHsl"":""hsl(290, 100%, 50%)""},{""timeMs"":24815,""colorHsl"":""hsl(210, 100%, 50%)""},{""timeMs"":25165,""colorHsl"":""hsl(290, 100%, 50%)""},{""timeMs"":25515,""colorHsl"":""hsl(210, 100%, 50%)""},{""timeMs"":25866,""colorHsl"":""hsl(290, 100%, 50%)""},{""timeMs"":26216,""colorHsl"":""hsl(210, 100%, 50%)""},{""timeMs"":26566,""colorHsl"":""hsl(290, 100%, 50%)""},{""timeMs"":26916,""colorHsl"":""hsl(210, 100%, 50%)""},{""timeMs"":27266,""colorHsl"":""hsl(290, 100%, 50%)""},{""timeMs"":27616,""colorHsl"":""hsl(210, 100%, 50%)""},{""timeMs"":27966,""colorHsl"":""hsl(290, 100%, 50%)""},{""timeMs"":28316,""colorHsl"":""hsl(210, 100%, 50%)""},{""timeMs"":28666,""colorHsl"":""hsl(290, 100%, 50%)""},{""timeMs"":29016,""colorHsl"":""hsl(210, 100%, 50%)""},{""timeMs"":29382,""colorHsl"":""hsl(290, 100%, 50%)""},{""timeMs"":29732,""colorHsl"":""hsl(210, 100%, 50%)""}]","[{""time_ms"":699},{""time_ms"":1547},{""time_ms"":2239},{""time_ms"":3048},{""time_ms"":3782},{""time_ms"":4549},{""time_ms"":5319},{""time_ms"":6180},{""time_ms"":7104},{""time_ms"":7933},{""time_ms"":8739},{""time_ms"":9579},{""time_ms"":10356},{""time_ms"":11189},{""time_ms"":11973},{""time_ms"":12768},{""time_ms"":13529},{""time_ms"":14379},{""time_ms"":15116},{""time_ms"":15966},{""time_ms"":16736},{""time_ms"":17594},{""time_ms"":18372},{""time_ms"":19129},{""time_ms"":19964},{""time_ms"":20806},{""time_ms"":21580},{""time_ms"":22375},{""time_ms"":23156},{""time_ms"":24001},{""time_ms"":24798},{""time_ms"":26032},{""time_ms"":26657},{""time_ms"":27281},{""time_ms"":28137},{""time_ms"":28907},{""time_ms"":29694}]","30000","size","color-size","30015.4","3",""
"html-keyboard-response","27","351908","0.0-24.0-0.0","female","62","89","p1.1_6637b21240220c2517fffa1a","November 29, 2025 at 3:36 PM","November 29, 2025 at 3:52 PM","{""browser"":""Chrome"",""version"":""142""}","null","[""<div class='jspsych-display-element' style='justify-content: center; align-items: center; min-height: 80vh; width: 100%;'><div style='display: inline-block; margin: 0 auto; color: black; font-size: 2.5vh; line-height: 3.2vh; padding: 10px 200px 10px 200px; text-align: left'><p><div style='color: red; display: inline-block;'> <h1>Track Color</h1> </div> changes and <div style='color: red; display: inline-block;'> <h1>ignore Size</h1> </div> changes.</p><p>Press Enter to start the display.</p></div></div>""]","null","attendedFeatureInstr","","","","","","","","","","","","","","","","","","","","",""
"html-keyboard-response","28","355926","0.0-24.0-1.0","female","62","89","p1.1_6637b21240220c2517fffa1a","November 29, 2025 at 3:36 PM","November 29, 2025 at 3:52 PM","{""browser"":""Chrome"",""version"":""142""}","4018","[""<div class='jspsych-display-element' style='justify-content: center; align-items: center; min-height: 80vh; width: 100%;'><div style='display: inline-block; margin: 0 auto; color: black; font-size: 2.5vh; line-height: 3.2vh; padding: 10px 200px 10px 200px; text-align: left'><p><div style='color: red; display: inline-block;'> <h1>Track Color</h1> </div> changes and <div style='color: red; display: inline-block;'> <h1>ignore Size</h1> </div> changes.</p><p>Press Enter to start the display.</p></div></div>""]","enter","trialStartWaiting","","","","","","","","","","","","","","","","","","","","",""
"html-keyboard-response","29","356530","0.0-25.0","female","62","89","p1.1_6637b21240220c2517fffa1a","November 29, 2025 at 3:36 PM","November 29, 2025 at 3:52 PM","{""browser"":""Chrome"",""version"":""142""}","null","<p style='color: white; font-size: 50px; text-align: center'>+</p>","null","ITI","","","","","","","","","","","","","","","","","","","","",""
"rhytmicFeatureChangeTask","30","386540","0.0-26.0","female","62","89","p1.1_6637b21240220c2517fffa1a","November 29, 2025 at 3:36 PM","November 29, 2025 at 3:52 PM","{""browser"":""Chrome"",""version"":""142""}","","","","test","","","400","350","[50,100]","1.2","[10,20]","[60,120]","hsl(210, 100%, 50%)","80","2.625","hsl(290, 100%, 50%)","[{""timeMs"":409,""rectSize"":[60,120]},{""timeMs"":809,""rectSize"":[50,100]},{""timeMs"":1209,""rectSize"":[60,120]},{""timeMs"":1609,""rectSize"":[50,100]},{""timeMs"":2009,""rectSize"":[60,120]},{""timeMs"":2409,""rectSize"":[50,100]},{""timeMs"":2809,""rectSize"":[60,120]},{""timeMs"":3226,""rectSize"":[50,100]},{""timeMs"":3643,""rectSize"":[60,120]},{""timeMs"":4059,""rectSize"":[50,100]},{""timeMs"":4476,""rectSize"":[60,120]},{""timeMs"":4876,""rectSize"":[50,100]},{""timeMs"":5276,""rectSize"":[60,120]},{""timeMs"":5676,""rectSize"":[50,100]},{""timeMs"":6076,""rectSize"":[60,120]},{""timeMs"":6492,""rectSize"":[50,100]},{""timeMs"":6892,""rectSize"":[60,120]},{""timeMs"":7309,""rectSize"":[50,100]},{""timeMs"":7709,""rectSize"":[60,120]},{""timeMs"":8109,""rectSize"":[50,100]},{""timeMs"":8509,""rectSize"":[60,120]},{""timeMs"":8909,""rectSize"":[50,100]},{""timeMs"":9326,""rectSize"":[60,120]},{""timeMs"":9742,""rectSize"":[50,100]},{""timeMs"":10143,""rectSize"":[60,120]},{""timeMs"":10543,""rectSize"":[50,100]},{""timeMs"":10943,""rectSize"":[60,120]},{""timeMs"":11359,""rectSize"":[50,100]},{""timeMs"":11759,""rectSize"":[60,120]},{""timeMs"":12176,""rectSize"":[50,100]},{""timeMs"":12592,""rectSize"":[60,120]},{""timeMs"":12992,""rectSize"":[50,100]},{""timeMs"":13392,""rectSize"":[60,120]},{""timeMs"":13809,""rectSize"":[50,100]},{""timeMs"":14209,""rectSize"":[60,120]},{""timeMs"":14609,""rectSize"":[50,100]},{""timeMs"":15026,""rectSize"":[60,120]},{""timeMs"":15426,""rectSize"":[50,100]},{""timeMs"":15826,""rectSize"":[60,120]},{""timeMs"":16226,""rectSize"":[50,100]},{""timeMs"":16642,""rectSize"":[60,120]},{""timeMs"":17042,""rectSize"":[50,100]},{""timeMs"":17442,""rectSize"":[60,120]},{""timeMs"":17843,""rectSize"":[50,100]},{""timeMs"":18259,""rectSize"":[60,120]},{""timeMs"":18659,""rectSize"":[50,100]},{""timeMs"":19059,""rectSize"":[60,120]},{""timeMs"":19475,""rectSize"":[50,100]},{""timeMs"":19875,""rectSize"":[60,120]},{""timeMs"":20276,""rectSize"":[50,100]},{""timeMs"":20676,""rectSize"":[60,120]},{""timeMs"":21093,""rectSize"":[50,100]},{""timeMs"":21493,""rectSize"":[60,120]},{""timeMs"":21909,""rectSize"":[50,100]},{""timeMs"":22309,""rectSize"":[60,120]},{""timeMs"":22709,""rectSize"":[50,100]},{""timeMs"":23109,""rectSize"":[60,120]},{""timeMs"":23509,""rectSize"":[50,100]},{""timeMs"":23909,""rectSize"":[60,120]},{""timeMs"":24325,""rectSize"":[50,100]},{""timeMs"":24725,""rectSize"":[60,120]},{""timeMs"":25125,""rectSize"":[50,100]},{""timeMs"":25526,""rectSize"":[60,120]},{""timeMs"":25926,""rectSize"":[50,100]},{""timeMs"":26342,""rectSize"":[60,120]},{""timeMs"":26742,""rectSize"":[50,100]},{""timeMs"":27142,""rectSize"":[60,120]},{""timeMs"":27542,""rectSize"":[50,100]},{""timeMs"":27942,""rectSize"":[60,120]},{""timeMs"":28342,""rectSize"":[50,100]},{""timeMs"":28743,""rectSize"":[60,120]},{""timeMs"":29159,""rectSize"":[50,100]},{""timeMs"":29559,""rectSize"":[60,120]},{""timeMs"":29959,""rectSize"":[50,100]}]","[{""timeMs"":359,""colorHsl"":""hsl(290, 100%, 50%)""},{""timeMs"":709,""colorHsl"":""hsl(210, 100%, 50%)""},{""timeMs"":1059,""colorHsl"":""hsl(290, 100%, 50%)""},{""timeMs"":1409,""colorHsl"":""hsl(210, 100%, 50%)""},{""timeMs"":1759,""colorHsl"":""hsl(290, 100%, 50%)""},{""timeMs"":2109,""colorHsl"":""hsl(210, 100%, 50%)""},{""timeMs"":2459,""colorHsl"":""hsl(290, 100%, 50%)""},{""timeMs"":2809,""colorHsl"":""hsl(210, 100%, 50%)""},{""timeMs"":3176,""colorHsl"":""hsl(290, 100%, 50%)""},{""timeMs"":3526,""colorHsl"":""hsl(210, 100%, 50%)""},{""timeMs"":3893,""colorHsl"":""hsl(290, 100%, 50%)""},{""timeMs"":4259,""colorHsl"":""hsl(210, 100%, 50%)""},{""timeMs"":4626,""colorHsl"":""hsl(290, 100%, 50%)""},{""timeMs"":4976,""colorHsl"":""hsl(210, 100%, 50%)""},{""timeMs"":5326,""colorHsl"":""hsl(290, 100%, 50%)""},{""timeMs"":5676,""colorHsl"":""hsl(210, 100%, 50%)""},{""timeMs"":6026,""colorHsl"":""hsl(290, 100%, 50%)""},{""timeMs"":6392,""colorHsl"":""hsl(210, 100%, 50%)""},{""timeMs"":6742,""colorHsl"":""hsl(290, 100%, 50%)""},{""timeMs"":7109,""colorHsl"":""hsl(210, 100%, 50%)""},{""timeMs"":7459,""colorHsl"":""hsl(290, 100%, 50%)""},{""timeMs"":7809,""colorHsl"":""hsl(210, 100%, 50%)""},{""timeMs"":8159,""colorHsl"":""hsl(290, 100%, 50%)""},{""timeMs"":8509,""colorHsl"":""hsl(210, 100%, 50%)""},{""timeMs"":8859,""colorHsl"":""hsl(290, 100%, 50%)""},{""timeMs"":9209,""colorHsl"":""hsl(210, 100%, 50%)""},{""timeMs"":9559,""colorHsl"":""hsl(290, 100%, 50%)""},{""timeMs"":9909,""colorHsl"":""hsl(210, 100%, 50%)""},{""timeMs"":10259,""colorHsl"":""hsl(290, 100%, 50%)""},{""timeMs"":10609,""colorHsl"":""hsl(210, 100%, 50%)""},{""timeMs"":10959,""colorHsl"":""hsl(290, 100%, 50%)""},{""timeMs"":11309,""colorHsl"":""hsl(210, 100%, 50%)""},{""timeMs"":11676,""colorHsl"":""hsl(290, 100%, 50%)""},{""timeMs"":12026,""colorHsl"":""hsl(210, 100%, 50%)""},{""timeMs"":12392,""colorHsl"":""hsl(290, 100%, 50%)""},{""timeMs"":12742,""colorHsl"":""hsl(210, 100%, 50%)""},{""timeMs"":13092,""colorHsl"":""hsl(290, 100%, 50%)""},{""timeMs"":13442,""colorHsl"":""hsl(210, 100%, 50%)""},{""timeMs"":13792,""colorHsl"":""hsl(290, 100%, 50%)""},{""timeMs"":14142,""colorHsl"":""hsl(210, 100%, 50%)""},{""timeMs"":14492,""colorHsl"":""hsl(290, 100%, 50%)""},{""timeMs"":14843,""colorHsl"":""hsl(210, 100%, 50%)""},{""timeMs"":15193,""colorHsl"":""hsl(290, 100%, 50%)""},{""timeMs"":15559,""colorHsl"":""hsl(210, 100%, 50%)""},{""timeMs"":15926,""colorHsl"":""hsl(290, 100%, 50%)""},{""timeMs"":16276,""colorHsl"":""hsl(210, 100%, 50%)""},{""timeMs"":16642,""colorHsl"":""hsl(290, 100%, 50%)""},{""timeMs"":16993,""colorHsl"":""hsl(210, 100%, 50%)""},{""timeMs"":17343,""colorHsl"":""hsl(290, 100%, 50%)""},{""timeMs"":17709,""colorHsl"":""hsl(210, 100%, 50%)""},{""timeMs"":18059,""colorHsl"":""hsl(290, 100%, 50%)""},{""timeMs"":18425,""colorHsl"":""hsl(210, 100%, 50%)""},{""timeMs"":18776,""colorHsl"":""hsl(290, 100%, 50%)""},{""timeMs"":19126,""colorHsl"":""hsl(210, 100%, 50%)""},{""timeMs"":19492,""colorHsl"":""hsl(290, 100%, 50%)""},{""timeMs"":19842,""colorHsl"":""hsl(210, 100%, 50%)""},{""timeMs"":20192,""colorHsl"":""hsl(290, 100%, 50%)""},{""timeMs"":20542,""colorHsl"":""hsl(210, 100%, 50%)""},{""timeMs"":20892,""colorHsl"":""hsl(290, 100%, 50%)""},{""timeMs"":21242,""colorHsl"":""hsl(210, 100%, 50%)""},{""timeMs"":21592,""colorHsl"":""hsl(290, 100%, 50%)""},{""timeMs"":21942,""colorHsl"":""hsl(210, 100%, 50%)""},{""timeMs"":22292,""colorHsl"":""hsl(290, 100%, 50%)""},{""timeMs"":22642,""colorHsl"":""hsl(210, 100%, 50%)""},{""timeMs"":22993,""colorHsl"":""hsl(290, 100%, 50%)""},{""timeMs"":23359,""colorHsl"":""hsl(210, 100%, 50%)""},{""timeMs"":23709,""colorHsl"":""hsl(290, 100%, 50%)""},{""timeMs"":24076,""colorHsl"":""hsl(210, 100%, 50%)""},{""timeMs"":24442,""colorHsl"":""hsl(290, 100%, 50%)""},{""timeMs"":24792,""colorHsl"":""hsl(210, 100%, 50%)""},{""timeMs"":25159,""colorHsl"":""hsl(290, 100%, 50%)""},{""timeMs"":25509,""colorHsl"":""hsl(210, 100%, 50%)""},{""timeMs"":25875,""colorHsl"":""hsl(290, 100%, 50%)""},{""timeMs"":26225,""colorHsl"":""hsl(210, 100%, 50%)""},{""timeMs"":26576,""colorHsl"":""hsl(290, 100%, 50%)""},{""timeMs"":26926,""colorHsl"":""hsl(210, 100%, 50%)""},{""timeMs"":27292,""colorHsl"":""hsl(290, 100%, 50%)""},{""timeMs"":27643,""colorHsl"":""hsl(210, 100%, 50%)""},{""timeMs"":28009,""colorHsl"":""hsl(290, 100%, 50%)""},{""timeMs"":28359,""colorHsl"":""hsl(210, 100%, 50%)""},{""timeMs"":28726,""colorHsl"":""hsl(290, 100%, 50%)""},{""timeMs"":29076,""colorHsl"":""hsl(210, 100%, 50%)""},{""timeMs"":29442,""colorHsl"":""hsl(290, 100%, 50%)""},{""timeMs"":29792,""colorHsl"":""hsl(210, 100%, 50%)""}]","[{""time_ms"":676},{""time_ms"":1460},{""time_ms"":2073},{""time_ms"":2791},{""time_ms"":3514},{""time_ms"":4349},{""time_ms"":5123},{""time_ms"":5858},{""time_ms"":6717},{""time_ms"":7599},{""time_ms"":8455},{""time_ms"":9273},{""time_ms"":10084},{""time_ms"":11033},{""time_ms"":11931},{""time_ms"":12774},{""time_ms"":13532},{""time_ms"":14312},{""time_ms"":15127},{""time_ms"":16064},{""time_ms"":16892},{""time_ms"":17716},{""time_ms"":18505},{""time_ms"":19250},{""time_ms"":20014},{""time_ms"":20756},{""time_ms"":21491},{""time_ms"":22264},{""time_ms"":23091},{""time_ms"":24132},{""time_ms"":24716},{""time_ms"":25404},{""time_ms"":26176},{""time_ms"":26924},{""time_ms"":27757},{""time_ms"":28622},{""time_ms"":29650}]","30000","color","color-size","30009","4",""
"html-keyboard-response","31","386942","0.0-27.0-0.0","female","62","89","p1.1_6637b21240220c2517fffa1a","November 29, 2025 at 3:36 PM","November 29, 2025 at 3:52 PM","{""browser"":""Chrome"",""version"":""142""}","null","[""<div class='jspsych-display-element' style='justify-content: center; align-items: center; min-height: 80vh; width: 100%;'><div style='display: inline-block; margin: 0 auto; color: black; font-size: 2.5vh; line-height: 3.2vh; padding: 10px 200px 10px 200px; text-align: left'><p><div style='color: red; display: inline-block;'> <h1>Track Color</h1> </div> changes and <div style='color: red; display: inline-block;'> <h1>ignore Size</h1> </div> changes.</p><p>Press Enter to start the display.</p></div></div>""]","null","attendedFeatureInstr","","","","","","","","","","","","","","","","","","","","",""
"html-keyboard-response","32","389059","0.0-27.0-1.0","female","62","89","p1.1_6637b21240220c2517fffa1a","November 29, 2025 at 3:36 PM","November 29, 2025 at 3:52 PM","{""browser"":""Chrome"",""version"":""142""}","2118","[""<div class='jspsych-display-element' style='justify-content: center; align-items: center; min-height: 80vh; width: 100%;'><div style='display: inline-block; margin: 0 auto; color: black; font-size: 2.5vh; line-height: 3.2vh; padding: 10px 200px 10px 200px; text-align: left'><p><div style='color: red; display: inline-block;'> <h1>Track Color</h1> </div> changes and <div style='color: red; display: inline-block;'> <h1>ignore Size</h1> </div> changes.</p><p>Press Enter to start the display.</p></div></div>""]","enter","trialStartWaiting","","","","","","","","","","","","","","","","","","","","",""
"html-keyboard-response","33","389904","0.0-28.0","female","62","89","p1.1_6637b21240220c2517fffa1a","November 29, 2025 at 3:36 PM","November 29, 2025 at 3:52 PM","{""browser"":""Chrome"",""version"":""142""}","null","<p style='color: white; font-size: 50px; text-align: center'>+</p>","null","ITI","","","","","","","","","","","","","","","","","","","","",""
"rhytmicFeatureChangeTask","34","419907","0.0-29.0","female","62","89","p1.1_6637b21240220c2517fffa1a","November 29, 2025 at 3:36 PM","November 29, 2025 at 3:52 PM","{""browser"":""Chrome"",""version"":""142""}","","","","test","","","450","500","[50,100]","1.2","[10,20]","[60,120]","hsl(210, 100%, 50%)","80","2.625","hsl(290, 100%, 50%)","[{""timeMs"":452,""rectSize"":[60,120]},{""timeMs"":918,""rectSize"":[50,100]},{""timeMs"":1368,""rectSize"":[60,120]},{""timeMs"":1818,""rectSize"":[50,100]},{""timeMs"":2268,""rectSize"":[60,120]},{""timeMs"":2735,""rectSize"":[50,100]},{""timeMs"":3201,""rectSize"":[60,120]},{""timeMs"":3651,""rectSize"":[50,100]},{""timeMs"":4101,""rectSize"":[60,120]},{""timeMs"":4551,""rectSize"":[50,100]},{""timeMs"":5001,""rectSize"":[60,120]},{""timeMs"":5452,""rectSize"":[50,100]},{""timeMs"":5902,""rectSize"":[60,120]},{""timeMs"":6352,""rectSize"":[50,100]},{""timeMs"":6802,""rectSize"":[60,120]},{""timeMs"":7252,""rectSize"":[50,100]},{""timeMs"":7702,""rectSize"":[60,120]},{""timeMs"":8168,""rectSize"":[50,100]},{""timeMs"":8618,""rectSize"":[60,120]},{""timeMs"":9085,""rectSize"":[50,100]},{""timeMs"":9535,""rectSize"":[60,120]},{""timeMs"":9985,""rectSize"":[50,100]},{""timeMs"":10451,""rectSize"":[60,120]},{""timeMs"":10901,""rectSize"":[50,100]},{""timeMs"":11352,""rectSize"":[60,120]},{""timeMs"":11802,""rectSize"":[50,100]},{""timeMs"":12252,""rectSize"":[60,120]},{""timeMs"":12702,""rectSize"":[50,100]},{""timeMs"":13152,""rectSize"":[60,120]},{""timeMs"":13618,""rectSize"":[50,100]},{""timeMs"":14069,""rectSize"":[60,120]},{""timeMs"":14535,""rectSize"":[50,100]},{""timeMs"":15001,""rectSize"":[60,120]},{""timeMs"":15451,""rectSize"":[50,100]},{""timeMs"":15901,""rectSize"":[60,120]},{""timeMs"":16351,""rectSize"":[50,100]},{""timeMs"":16801,""rectSize"":[60,120]},{""timeMs"":17252,""rectSize"":[50,100]},{""timeMs"":17702,""rectSize"":[60,120]},{""timeMs"":18152,""rectSize"":[50,100]},{""timeMs"":18602,""rectSize"":[60,120]},{""timeMs"":19068,""rectSize"":[50,100]},{""timeMs"":19518,""rectSize"":[60,120]},{""timeMs"":19968,""rectSize"":[50,100]},{""timeMs"":20418,""rectSize"":[60,120]},{""timeMs"":20885,""rectSize"":[50,100]},{""timeMs"":21351,""rectSize"":[60,120]},{""timeMs"":21817,""rectSize"":[50,100]},{""timeMs"":22268,""rectSize"":[60,120]},{""timeMs"":22718,""rectSize"":[50,100]},{""timeMs"":23168,""rectSize"":[60,120]},{""timeMs"":23618,""rectSize"":[50,100]},{""timeMs"":24068,""rectSize"":[60,120]},{""timeMs"":24534,""rectSize"":[50,100]},{""timeMs"":24985,""rectSize"":[60,120]},{""timeMs"":25435,""rectSize"":[50,100]},{""timeMs"":25885,""rectSize"":[60,120]},{""timeMs"":26335,""rectSize"":[50,100]},{""timeMs"":26800,""rectSize"":[60,120]},{""timeMs"":27250,""rectSize"":[50,100]},{""timeMs"":27701,""rectSize"":[60,120]},{""timeMs"":28168,""rectSize"":[50,100]},{""timeMs"":28634,""rectSize"":[60,120]},{""timeMs"":29085,""rectSize"":[50,100]},{""timeMs"":29535,""rectSize"":[60,120]}]","[{""timeMs"":502,""colorHsl"":""hsl(290, 100%, 50%)""},{""timeMs"":1002,""colorHsl"":""hsl(210, 100%, 50%)""},{""timeMs"":1502,""colorHsl"":""hsl(290, 100%, 50%)""},{""timeMs"":2018,""colorHsl"":""hsl(210, 100%, 50%)""},{""timeMs"":2535,""colorHsl"":""hsl(290, 100%, 50%)""},{""timeMs"":3051,""colorHsl"":""hsl(210, 100%, 50%)""},{""timeMs"":3551,""colorHsl"":""hsl(290, 100%, 50%)""},{""timeMs"":4051,""colorHsl"":""hsl(210, 100%, 50%)""},{""timeMs"":4551,""colorHsl"":""hsl(290, 100%, 50%)""},{""timeMs"":5051,""colorHsl"":""hsl(210, 100%, 50%)""},{""timeMs"":5552,""colorHsl"":""hsl(290, 100%, 50%)""},{""timeMs"":6052,""colorHsl"":""hsl(210, 100%, 50%)""},{""timeMs"":6552,""colorHsl"":""hsl(290, 100%, 50%)""},{""timeMs"":7052,""colorHsl"":""hsl(210, 100%, 50%)""},{""timeMs"":7552,""colorHsl"":""hsl(290, 100%, 50%)""},{""timeMs"":8052,""colorHsl"":""hsl(210, 100%, 50%)""},{""timeMs"":8552,""colorHsl"":""hsl(290, 100%, 50%)""},{""timeMs"":9068,""colorHsl"":""hsl(210, 100%, 50%)""},{""timeMs"":9568,""colorHsl"":""hsl(290, 100%, 50%)""},{""timeMs"":10085,""colorHsl"":""hsl(210, 100%, 50%)""},{""timeMs"":10585,""colorHsl"":""hsl(290, 100%, 50%)""},{""timeMs"":11101,""colorHsl"":""hsl(210, 100%, 50%)""},{""timeMs"":11602,""colorHsl"":""hsl(290, 100%, 50%)""},{""timeMs"":12102,""colorHsl"":""hsl(210, 100%, 50%)""},{""timeMs"":12618,""colorHsl"":""hsl(290, 100%, 50%)""},{""timeMs"":13135,""colorHsl"":""hsl(210, 100%, 50%)""},{""timeMs"":13635,""colorHsl"":""hsl(290, 100%, 50%)""},{""timeMs"":14135,""colorHsl"":""hsl(210, 100%, 50%)""},{""timeMs"":14652,""colorHsl"":""hsl(290, 100%, 50%)""},{""timeMs"":15168,""colorHsl"":""hsl(210, 100%, 50%)""},{""timeMs"":15668,""colorHsl"":""hsl(290, 100%, 50%)""},{""timeMs"":16168,""colorHsl"":""hsl(210, 100%, 50%)""},{""timeMs"":16685,""colorHsl"":""hsl(290, 100%, 50%)""},{""timeMs"":17185,""colorHsl"":""hsl(210, 100%, 50%)""},{""timeMs"":17702,""colorHsl"":""hsl(290, 100%, 50%)""},{""timeMs"":18202,""colorHsl"":""hsl(210, 100%, 50%)""},{""timeMs"":18702,""colorHsl"":""hsl(290, 100%, 50%)""},{""timeMs"":19218,""colorHsl"":""hsl(210, 100%, 50%)""},{""timeMs"":19735,""colorHsl"":""hsl(290, 100%, 50%)""},{""timeMs"":20235,""colorHsl"":""hsl(210, 100%, 50%)""},{""timeMs"":20735,""colorHsl"":""hsl(290, 100%, 50%)""},{""timeMs"":21251,""colorHsl"":""hsl(210, 100%, 50%)""},{""timeMs"":21751,""colorHsl"":""hsl(290, 100%, 50%)""},{""timeMs"":22251,""colorHsl"":""hsl(210, 100%, 50%)""},{""timeMs"":22751,""colorHsl"":""hsl(290, 100%, 50%)""},{""timeMs"":23252,""colorHsl"":""hsl(210, 100%, 50%)""},{""timeMs"":23752,""colorHsl"":""hsl(290, 100%, 50%)""},{""timeMs"":24268,""colorHsl"":""hsl(210, 100%, 50%)""},{""timeMs"":24768,""colorHsl"":""hsl(290, 100%, 50%)""},{""timeMs"":25268,""colorHsl"":""hsl(210, 100%, 50%)""},{""timeMs"":25768,""colorHsl"":""hsl(290, 100%, 50%)""},{""timeMs"":26284,""colorHsl"":""hsl(210, 100%, 50%)""},{""timeMs"":26785,""colorHsl"":""hsl(290, 100%, 50%)""},{""timeMs"":27301,""colorHsl"":""hsl(210, 100%, 50%)""},{""timeMs"":27801,""colorHsl"":""hsl(290, 100%, 50%)""},{""timeMs"":28301,""colorHsl"":""hsl(210, 100%, 50%)""},{""timeMs"":28817,""colorHsl"":""hsl(290, 100%, 50%)""},{""timeMs"":29317,""colorHsl"":""hsl(210, 100%, 50%)""},{""timeMs"":29818,""colorHsl"":""hsl(290, 100%, 50%)""}]","[{""time_ms"":754},{""time_ms"":1684},{""time_ms"":2568},{""time_ms"":3522},{""time_ms"":4615},{""time_ms"":5857},{""time_ms"":6950},{""time_ms"":7961},{""time_ms"":8929},{""time_ms"":9841},{""time_ms"":10982},{""time_ms"":11967},{""time_ms"":12958},{""time_ms"":13943},{""time_ms"":14871},{""time_ms"":15986},{""time_ms"":16908},{""time_ms"":17934},{""time_ms"":18858},{""time_ms"":19776},{""time_ms"":20859},{""time_ms"":22131},{""time_ms"":22930},{""time_ms"":23827},{""time_ms"":24740},{""time_ms"":25701},{""time_ms"":26842},{""time_ms"":27991},{""time_ms"":28899}]","30000","color","color-size","30001.7","5",""
"html-keyboard-response","35","420310","0.0-30.0-0.0","female","62","89","p1.1_6637b21240220c2517fffa1a","November 29, 2025 at 3:36 PM","November 29, 2025 at 3:52 PM","{""browser"":""Chrome"",""version"":""142""}","null","[""<div class='jspsych-display-element' style='justify-content: center; align-items: center; min-height: 80vh; width: 100%;'><div style='display: inline-block; margin: 0 auto; color: black; font-size: 2.5vh; line-height: 3.2vh; padding: 10px 200px 10px 200px; text-align: left'><p><div style='color: red; display: inline-block;'> <h1>Track Color</h1> </div> changes and <div style='color: red; display: inline-block;'> <h1>ignore Size</h1> </div> changes.</p><p>Press Enter to start the display.</p></div></div>""]","null","attendedFeatureInstr","","","","","","","","","","","","","","","","","","","","",""
"html-keyboard-response","36","422209","0.0-30.0-1.0","female","62","89","p1.1_6637b21240220c2517fffa1a","November 29, 2025 at 3:36 PM","November 29, 2025 at 3:52 PM","{""browser"":""Chrome"",""version"":""142""}","1898","[""<div class='jspsych-display-element' style='justify-content: center; align-items: center; min-height: 80vh; width: 100%;'><div style='display: inline-block; margin: 0 auto; color: black; font-size: 2.5vh; line-height: 3.2vh; padding: 10px 200px 10px 200px; text-align: left'><p><div style='color: red; display: inline-block;'> <h1>Track Color</h1> </div> changes and <div style='color: red; display: inline-block;'> <h1>ignore Size</h1> </div> changes.</p><p>Press Enter to start the display.</p></div></div>""]","enter","trialStartWaiting","","","","","","","","","","","","","","","","","","","","",""
"html-keyboard-response","37","422883","0.0-31.0","female","62","89","p1.1_6637b21240220c2517fffa1a","November 29, 2025 at 3:36 PM","November 29, 2025 at 3:52 PM","{""browser"":""Chrome"",""version"":""142""}","null","<p style='color: white; font-size: 50px; text-align: center'>+</p>","null","ITI","","","","","","","","","","","","","","","","","","","","",""
"rhytmicFeatureChangeTask","38","452890","0.0-32.0","female","62","89","p1.1_6637b21240220c2517fffa1a","November 29, 2025 at 3:36 PM","November 29, 2025 at 3:52 PM","{""browser"":""Chrome"",""version"":""142""}","","","","test","","","350","400","[50,100]","1.2","[10,20]","[60,120]","hsl(210, 100%, 50%)","80","2.625","hsl(290, 100%, 50%)","[{""timeMs"":356,""rectSize"":[60,120]},{""timeMs"":722,""rectSize"":[50,100]},{""timeMs"":1073,""rectSize"":[60,120]},{""timeMs"":1423,""rectSize"":[50,100]},{""timeMs"":1789,""rectSize"":[60,120]},{""timeMs"":2139,""rectSize"":[50,100]},{""timeMs"":2490,""rectSize"":[60,120]},{""timeMs"":2856,""rectSize"":[50,100]},{""timeMs"":3222,""rectSize"":[60,120]},{""timeMs"":3572,""rectSize"":[50,100]},{""timeMs"":3923,""rectSize"":[60,120]},{""timeMs"":4273,""rectSize"":[50,100]},{""timeMs"":4640,""rectSize"":[60,120]},{""timeMs"":5006,""rectSize"":[50,100]},{""timeMs"":5356,""rectSize"":[60,120]},{""timeMs"":5706,""rectSize"":[50,100]},{""timeMs"":6073,""rectSize"":[60,120]},{""timeMs"":6439,""rectSize"":[50,100]},{""timeMs"":6789,""rectSize"":[60,120]},{""timeMs"":7139,""rectSize"":[50,100]},{""timeMs"":7489,""rectSize"":[60,120]},{""timeMs"":7839,""rectSize"":[50,100]},{""timeMs"":8190,""rectSize"":[60,120]},{""timeMs"":8540,""rectSize"":[50,100]},{""timeMs"":8890,""rectSize"":[60,120]},{""timeMs"":9240,""rectSize"":[50,100]},{""timeMs"":9590,""rectSize"":[60,120]},{""timeMs"":9940,""rectSize"":[50,100]},{""timeMs"":10290,""rectSize"":[60,120]},{""timeMs"":10656,""rectSize"":[50,100]},{""timeMs"":11007,""rectSize"":[60,120]},{""timeMs"":11373,""rectSize"":[50,100]},{""timeMs"":11740,""rectSize"":[60,120]},{""timeMs"":12106,""rectSize"":[50,100]},{""timeMs"":12472,""rectSize"":[60,120]},{""timeMs"":12823,""rectSize"":[50,100]},{""timeMs"":13189,""rectSize"":[60,120]},{""timeMs"":13539,""rectSize"":[50,100]},{""timeMs"":13889,""rectSize"":[60,120]},{""timeMs"":14240,""rectSize"":[50,100]},{""timeMs"":14606,""rectSize"":[60,120]},{""timeMs"":14972,""rectSize"":[50,100]},{""timeMs"":15322,""rectSize"":[60,120]},{""timeMs"":15673,""rectSize"":[50,100]},{""timeMs"":16023,""rectSize"":[60,120]},{""timeMs"":16390,""rectSize"":[50,100]},{""timeMs"":16740,""rectSize"":[60,120]},{""timeMs"":17106,""rectSize"":[50,100]},{""timeMs"":17473,""rectSize"":[60,120]},{""timeMs"":17840,""rectSize"":[50,100]},{""timeMs"":18205,""rectSize"":[60,120]},{""timeMs"":18556,""rectSize"":[50,100]},{""timeMs"":18906,""rectSize"":[60,120]},{""timeMs"":19256,""rectSize"":[50,100]},{""timeMs"":19622,""rectSize"":[60,120]},{""timeMs"":19973,""rectSize"":[50,100]},{""timeMs"":20323,""rectSize"":[60,120]},{""timeMs"":20673,""rectSize"":[50,100]},{""timeMs"":21023,""rectSize"":[60,120]},{""timeMs"":21373,""rectSize"":[50,100]},{""timeMs"":21723,""rectSize"":[60,120]},{""timeMs"":22090,""rectSize"":[50,100]},{""timeMs"":22456,""rectSize"":[60,120]},{""timeMs"":22823,""rectSize"":[50,100]},{""timeMs"":23190,""rectSize"":[60,120]},{""timeMs"":23556,""rectSize"":[50,100]},{""timeMs"":23922,""rectSize"":[60,120]},{""timeMs"":24273,""rectSize"":[50,100]},{""timeMs"":24623,""rectSize"":[60,120]},{""timeMs"":24973,""rectSize"":[50,100]},{""timeMs"":25323,""rectSize"":[60,120]},{""timeMs"":25688,""rectSize"":[50,100]},{""timeMs"":26039,""rectSize"":[60,120]},{""timeMs"":26390,""rectSize"":[50,100]},{""timeMs"":26740,""rectSize"":[60,120]},{""timeMs"":27090,""rectSize"":[50,100]},{""timeMs"":27456,""rectSize"":[60,120]},{""timeMs"":27806,""rectSize"":[50,100]},{""timeMs"":28156,""rectSize"":[60,120]},{""timeMs"":28523,""rectSize"":[50,100]},{""timeMs"":28873,""rectSize"":[60,120]},{""timeMs"":29240,""rectSize"":[50,100]},{""timeMs"":29606,""rectSize"":[60,120]},{""timeMs"":29972,""rectSize"":[50,100]}]","[{""timeMs"":406,""colorHsl"":""hsl(290, 100%, 50%)""},{""timeMs"":806,""colorHsl"":""hsl(210, 100%, 50%)""},{""timeMs"":1222,""colorHsl"":""hsl(290, 100%, 50%)""},{""timeMs"":1623,""colorHsl"":""hsl(210, 100%, 50%)""},{""timeMs"":2023,""colorHsl"":""hsl(290, 100%, 50%)""},{""timeMs"":2423,""colorHsl"":""hsl(210, 100%, 50%)""},{""timeMs"":2839,""colorHsl"":""hsl(290, 100%, 50%)""},{""timeMs"":3240,""colorHsl"":""hsl(210, 100%, 50%)""},{""timeMs"":3656,""colorHsl"":""hsl(290, 100%, 50%)""},{""timeMs"":4056,""colorHsl"":""hsl(210, 100%, 50%)""},{""timeMs"":4473,""colorHsl"":""hsl(290, 100%, 50%)""},{""timeMs"":4873,""colorHsl"":""hsl(210, 100%, 50%)""},{""timeMs"":5273,""colorHsl"":""hsl(290, 100%, 50%)""},{""timeMs"":5673,""colorHsl"":""hsl(210, 100%, 50%)""},{""timeMs"":6088,""colorHsl"":""hsl(290, 100%, 50%)""},{""timeMs"":6489,""colorHsl"":""hsl(210, 100%, 50%)""},{""timeMs"":6906,""colorHsl"":""hsl(290, 100%, 50%)""},{""timeMs"":7323,""colorHsl"":""hsl(210, 100%, 50%)""},{""timeMs"":7723,""colorHsl"":""hsl(290, 100%, 50%)""},{""timeMs"":8139,""colorHsl"":""hsl(210, 100%, 50%)""},{""timeMs"":8540,""colorHsl"":""hsl(290, 100%, 50%)""},{""timeMs"":8940,""colorHsl"":""hsl(210, 100%, 50%)""},{""timeMs"":9340,""colorHsl"":""hsl(290, 100%, 50%)""},{""timeMs"":9756,""colorHsl"":""hsl(210, 100%, 50%)""},{""timeMs"":10173,""colorHsl"":""hsl(290, 100%, 50%)""},{""timeMs"":10573,""colorHsl"":""hsl(210, 100%, 50%)""},{""timeMs"":10989,""colorHsl"":""hsl(290, 100%, 50%)""},{""timeMs"":11390,""colorHsl"":""hsl(210, 100%, 50%)""},{""timeMs"":11806,""colorHsl"":""hsl(290, 100%, 50%)""},{""timeMs"":12206,""colorHsl"":""hsl(210, 100%, 50%)""},{""timeMs"":12606,""colorHsl"":""hsl(290, 100%, 50%)""},{""timeMs"":13006,""colorHsl"":""hsl(210, 100%, 50%)""},{""timeMs"":13406,""colorHsl"":""hsl(290, 100%, 50%)""},{""timeMs"":13823,""colorHsl"":""hsl(210, 100%, 50%)""},{""timeMs"":14240,""colorHsl"":""hsl(290, 100%, 50%)""},{""timeMs"":14656,""colorHsl"":""hsl(210, 100%, 50%)""},{""timeMs"":15056,""colorHsl"":""hsl(290, 100%, 50%)""},{""timeMs"":15456,""colorHsl"":""hsl(210, 100%, 50%)""},{""timeMs"":15856,""colorHsl"":""hsl(290, 100%, 50%)""},{""timeMs"":16273,""colorHsl"":""hsl(210, 100%, 50%)""},{""timeMs"":16673,""colorHsl"":""hsl(290, 100%, 50%)""},{""timeMs"":17090,""colorHsl"":""hsl(210, 100%, 50%)""},{""timeMs"":17506,""colorHsl"":""hsl(290, 100%, 50%)""},{""timeMs"":17923,""colorHsl"":""hsl(210, 100%, 50%)""},{""timeMs"":18323,""colorHsl"":""hsl(290, 100%, 50%)""},{""timeMs"":18723,""colorHsl"":""hsl(210, 100%, 50%)""},{""timeMs"":19138,""colorHsl"":""hsl(290, 100%, 50%)""},{""timeMs"":19539,""colorHsl"":""hsl(210, 100%, 50%)""},{""timeMs"":19939,""colorHsl"":""hsl(290, 100%, 50%)""},{""timeMs"":20340,""colorHsl"":""hsl(210, 100%, 50%)""},{""timeMs"":20756,""colorHsl"":""hsl(290, 100%, 50%)""},{""timeMs"":21156,""colorHsl"":""hsl(210, 100%, 50%)""},{""timeMs"":21572,""colorHsl"":""hsl(290, 100%, 50%)""},{""timeMs"":21990,""colorHsl"":""hsl(210, 100%, 50%)""},{""timeMs"":22390,""colorHsl"":""hsl(290, 100%, 50%)""},{""timeMs"":22790,""colorHsl"":""hsl(210, 100%, 50%)""},{""timeMs"":23206,""colorHsl"":""hsl(290, 100%, 50%)""},{""timeMs"":23606,""colorHsl"":""hsl(210, 100%, 50%)""},{""timeMs"":24023,""colorHsl"":""hsl(290, 100%, 50%)""},{""timeMs"":24423,""colorHsl"":""hsl(210, 100%, 50%)""},{""timeMs"":24839,""colorHsl"":""hsl(290, 100%, 50%)""},{""timeMs"":25256,""colorHsl"":""hsl(210, 100%, 50%)""},{""timeMs"":25672,""colorHsl"":""hsl(290, 100%, 50%)""},{""timeMs"":26072,""colorHsl"":""hsl(210, 100%, 50%)""},{""timeMs"":26473,""colorHsl"":""hsl(290, 100%, 50%)""},{""timeMs"":26873,""colorHsl"":""hsl(210, 100%, 50%)""},{""timeMs"":27273,""colorHsl"":""hsl(290, 100%, 50%)""},{""timeMs"":27690,""colorHsl"":""hsl(210, 100%, 50%)""},{""timeMs"":28090,""colorHsl"":""hsl(290, 100%, 50%)""},{""timeMs"":28490,""colorHsl"":""hsl(210, 100%, 50%)""},{""timeMs"":28890,""colorHsl"":""hsl(290, 100%, 50%)""},{""timeMs"":29306,""colorHsl"":""hsl(210, 100%, 50%)""},{""timeMs"":29723,""colorHsl"":""hsl(290, 100%, 50%)""}]","[{""time_ms"":752},{""time_ms"":1568},{""time_ms"":2198},{""time_ms"":3075},{""time_ms"":3807},{""time_ms"":4481},{""time_ms"":5238},{""time_ms"":5935},{""time_ms"":6797},{""time_ms"":7693},{""time_ms"":8491},{""time_ms"":9438},{""time_ms"":10441},{""time_ms"":11309},{""time_ms"":12239},{""time_ms"":13007},{""time_ms"":13742},{""time_ms"":14520},{""time_ms"":15311},{""time_ms"":16105},{""time_ms"":16938},{""time_ms"":17720},{""time_ms"":18494},{""time_ms"":19227},{""time_ms"":20124},{""time_ms"":20886},{""time_ms"":21694},{""time_ms"":22644},{""time_ms"":23374},{""time_ms"":24152},{""time_ms"":24876},{""time_ms"":25696},{""time_ms"":26545},{""time_ms"":27578},{""time_ms"":28572},{""time_ms"":29172},{""time_ms"":29910}]","30000","color","color-size","30006","6",""
"html-keyboard-response","39","453290","0.0-33.0-0.0","female","62","89","p1.1_6637b21240220c2517fffa1a","November 29, 2025 at 3:36 PM","November 29, 2025 at 3:52 PM","{""browser"":""Chrome"",""version"":""142""}","null","[""<div class='jspsych-display-element' style='justify-content: center; align-items: center; min-height: 80vh; width: 100%;'><div style='display: inline-block; margin: 0 auto; color: black; font-size: 2.5vh; line-height: 3.2vh; padding: 10px 200px 10px 200px; text-align: left'><p><div style='color: red; display: inline-block;'> <h1>Track Color</h1> </div> changes and <div style='color: red; display: inline-block;'> <h1>ignore Size</h1> </div> changes.</p><p>Press Enter to start the display.</p></div></div>""]","null","attendedFeatureInstr","","","","","","","","","","","","","","","","","","","","",""
"html-keyboard-response","40","456446","0.0-33.0-1.0","female","62","89","p1.1_6637b21240220c2517fffa1a","November 29, 2025 at 3:36 PM","November 29, 2025 at 3:52 PM","{""browser"":""Chrome"",""version"":""142""}","3155","[""<div class='jspsych-display-element' style='justify-content: center; align-items: center; min-height: 80vh; width: 100%;'><div style='display: inline-block; margin: 0 auto; color: black; font-size: 2.5vh; line-height: 3.2vh; padding: 10px 200px 10px 200px; text-align: left'><p><div style='color: red; display: inline-block;'> <h1>Track Color</h1> </div> changes and <div style='color: red; display: inline-block;'> <h1>ignore Size</h1> </div> changes.</p><p>Press Enter to start the display.</p></div></div>""]","enter","trialStartWaiting","","","","","","","","","","","","","","","","","","","","",""
"html-keyboard-response","41","457378","0.0-34.0","female","62","89","p1.1_6637b21240220c2517fffa1a","November 29, 2025 at 3:36 PM","November 29, 2025 at 3:52 PM","{""browser"":""Chrome"",""version"":""142""}","null","<p style='color: white; font-size: 50px; text-align: center'>+</p>","null","ITI","","","","","","","","","","","","","","","","","","","","",""
"rhytmicFeatureChangeTask","42","487390","0.0-35.0","female","62","89","p1.1_6637b21240220c2517fffa1a","November 29, 2025 at 3:36 PM","November 29, 2025 at 3:52 PM","{""browser"":""Chrome"",""version"":""142""}","","","","test","","","500","450","[50,100]","1.2","[10,20]","[60,120]","hsl(210, 100%, 50%)","80","2.625","hsl(290, 100%, 50%)","[{""timeMs"":511,""rectSize"":[60,120]},{""timeMs"":1028,""rectSize"":[50,100]},{""timeMs"":1544,""rectSize"":[60,120]},{""timeMs"":2061,""rectSize"":[50,100]},{""timeMs"":2561,""rectSize"":[60,120]},{""timeMs"":3061,""rectSize"":[50,100]},{""timeMs"":3561,""rectSize"":[60,120]},{""timeMs"":4061,""rectSize"":[50,100]},{""timeMs"":4577,""rectSize"":[60,120]},{""timeMs"":5077,""rectSize"":[50,100]},{""timeMs"":5578,""rectSize"":[60,120]},{""timeMs"":6078,""rectSize"":[50,100]},{""timeMs"":6578,""rectSize"":[60,120]},{""timeMs"":7094,""rectSize"":[50,100]},{""timeMs"":7611,""rectSize"":[60,120]},{""timeMs"":8126,""rectSize"":[50,100]},{""timeMs"":8627,""rectSize"":[60,120]},{""timeMs"":9144,""rectSize"":[50,100]},{""timeMs"":9644,""rectSize"":[60,120]},{""timeMs"":10144,""rectSize"":[50,100]},{""timeMs"":10661,""rectSize"":[60,120]},{""timeMs"":11161,""rectSize"":[50,100]},{""timeMs"":11661,""rectSize"":[60,120]},{""timeMs"":12161,""rectSize"":[50,100]},{""timeMs"":12661,""rectSize"":[60,120]},{""timeMs"":13161,""rectSize"":[50,100]},{""timeMs"":13676,""rectSize"":[60,120]},{""timeMs"":14177,""rectSize"":[50,100]},{""timeMs"":14677,""rectSize"":[60,120]},{""timeMs"":15193,""rectSize"":[50,100]},{""timeMs"":15694,""rectSize"":[60,120]},{""timeMs"":16211,""rectSize"":[50,100]},{""timeMs"":16728,""rectSize"":[60,120]},{""timeMs"":17228,""rectSize"":[50,100]},{""timeMs"":17744,""rectSize"":[60,120]},{""timeMs"":18244,""rectSize"":[50,100]},{""timeMs"":18760,""rectSize"":[60,120]},{""timeMs"":19261,""rectSize"":[50,100]},{""timeMs"":19777,""rectSize"":[60,120]},{""timeMs"":20294,""rectSize"":[50,100]},{""timeMs"":20794,""rectSize"":[60,120]},{""timeMs"":21310,""rectSize"":[50,100]},{""timeMs"":21811,""rectSize"":[60,120]},{""timeMs"":22311,""rectSize"":[50,100]},{""timeMs"":22827,""rectSize"":[60,120]},{""timeMs"":23327,""rectSize"":[50,100]},{""timeMs"":23827,""rectSize"":[60,120]},{""timeMs"":24327,""rectSize"":[50,100]},{""timeMs"":24827,""rectSize"":[60,120]},{""timeMs"":25344,""rectSize"":[50,100]},{""timeMs"":25861,""rectSize"":[60,120]},{""timeMs"":26361,""rectSize"":[50,100]},{""timeMs"":26877,""rectSize"":[60,120]},{""timeMs"":27377,""rectSize"":[50,100]},{""timeMs"":27878,""rectSize"":[60,120]},{""timeMs"":28378,""rectSize"":[50,100]},{""timeMs"":28878,""rectSize"":[60,120]},{""timeMs"":29378,""rectSize"":[50,100]},{""timeMs"":29894,""rectSize"":[60,120]}]","[{""timeMs"":461,""colorHsl"":""hsl(290, 100%, 50%)""},{""timeMs"":911,""colorHsl"":""hsl(210, 100%, 50%)""},{""timeMs"":1377,""colorHsl"":""hsl(290, 100%, 50%)""},{""timeMs"":1827,""colorHsl"":""hsl(210, 100%, 50%)""},{""timeMs"":2277,""colorHsl"":""hsl(290, 100%, 50%)""},{""timeMs"":2727,""colorHsl"":""hsl(210, 100%, 50%)""},{""timeMs"":3177,""colorHsl"":""hsl(290, 100%, 50%)""},{""timeMs"":3627,""colorHsl"":""hsl(210, 100%, 50%)""},{""timeMs"":4094,""colorHsl"":""hsl(290, 100%, 50%)""},{""timeMs"":4560,""colorHsl"":""hsl(210, 100%, 50%)""},{""timeMs"":5011,""colorHsl"":""hsl(290, 100%, 50%)""},{""timeMs"":5478,""colorHsl"":""hsl(210, 100%, 50%)""},{""timeMs"":5944,""colorHsl"":""hsl(290, 100%, 50%)""},{""timeMs"":6411,""colorHsl"":""hsl(210, 100%, 50%)""},{""timeMs"":6861,""colorHsl"":""hsl(290, 100%, 50%)""},{""timeMs"":7327,""colorHsl"":""hsl(210, 100%, 50%)""},{""timeMs"":7793,""colorHsl"":""hsl(290, 100%, 50%)""},{""timeMs"":8244,""colorHsl"":""hsl(210, 100%, 50%)""},{""timeMs"":8710,""colorHsl"":""hsl(290, 100%, 50%)""},{""timeMs"":9160,""colorHsl"":""hsl(210, 100%, 50%)""},{""timeMs"":9611,""colorHsl"":""hsl(290, 100%, 50%)""},{""timeMs"":10061,""colorHsl"":""hsl(210, 100%, 50%)""},{""timeMs"":10511,""colorHsl"":""hsl(290, 100%, 50%)""},{""timeMs"":10961,""colorHsl"":""hsl(210, 100%, 50%)""},{""timeMs"":11411,""colorHsl"":""hsl(290, 100%, 50%)""},{""timeMs"":11878,""colorHsl"":""hsl(210, 100%, 50%)""},{""timeMs"":12344,""colorHsl"":""hsl(290, 100%, 50%)""},{""timeMs"":12794,""colorHsl"":""hsl(210, 100%, 50%)""},{""timeMs"":13244,""colorHsl"":""hsl(290, 100%, 50%)""},{""timeMs"":13711,""colorHsl"":""hsl(210, 100%, 50%)""},{""timeMs"":14161,""colorHsl"":""hsl(290, 100%, 50%)""},{""timeMs"":14626,""colorHsl"":""hsl(210, 100%, 50%)""},{""timeMs"":15077,""colorHsl"":""hsl(290, 100%, 50%)""},{""timeMs"":15543,""colorHsl"":""hsl(210, 100%, 50%)""},{""timeMs"":15994,""colorHsl"":""hsl(290, 100%, 50%)""},{""timeMs"":16461,""colorHsl"":""hsl(210, 100%, 50%)""},{""timeMs"":16928,""colorHsl"":""hsl(290, 100%, 50%)""},{""timeMs"":17394,""colorHsl"":""hsl(210, 100%, 50%)""},{""timeMs"":17861,""colorHsl"":""hsl(290, 100%, 50%)""},{""timeMs"":18328,""colorHsl"":""hsl(210, 100%, 50%)""},{""timeMs"":18794,""colorHsl"":""hsl(290, 100%, 50%)""},{""timeMs"":19244,""colorHsl"":""hsl(210, 100%, 50%)""},{""timeMs"":19711,""colorHsl"":""hsl(290, 100%, 50%)""},{""timeMs"":20161,""colorHsl"":""hsl(210, 100%, 50%)""},{""timeMs"":20626,""colorHsl"":""hsl(290, 100%, 50%)""},{""timeMs"":21094,""colorHsl"":""hsl(210, 100%, 50%)""},{""timeMs"":21560,""colorHsl"":""hsl(290, 100%, 50%)""},{""timeMs"":22011,""colorHsl"":""hsl(210, 100%, 50%)""},{""timeMs"":22478,""colorHsl"":""hsl(290, 100%, 50%)""},{""timeMs"":22928,""colorHsl"":""hsl(210, 100%, 50%)""},{""timeMs"":23378,""colorHsl"":""hsl(290, 100%, 50%)""},{""timeMs"":23844,""colorHsl"":""hsl(210, 100%, 50%)""},{""timeMs"":24294,""colorHsl"":""hsl(290, 100%, 50%)""},{""timeMs"":24761,""colorHsl"":""hsl(210, 100%, 50%)""},{""timeMs"":25211,""colorHsl"":""hsl(290, 100%, 50%)""},{""timeMs"":25677,""colorHsl"":""hsl(210, 100%, 50%)""},{""timeMs"":26127,""colorHsl"":""hsl(290, 100%, 50%)""},{""timeMs"":26594,""colorHsl"":""hsl(210, 100%, 50%)""},{""timeMs"":27044,""colorHsl"":""hsl(290, 100%, 50%)""},{""timeMs"":27510,""colorHsl"":""hsl(210, 100%, 50%)""},{""timeMs"":27961,""colorHsl"":""hsl(290, 100%, 50%)""},{""timeMs"":28411,""colorHsl"":""hsl(210, 100%, 50%)""},{""timeMs"":28878,""colorHsl"":""hsl(290, 100%, 50%)""},{""timeMs"":29344,""colorHsl"":""hsl(210, 100%, 50%)""},{""timeMs"":29794,""colorHsl"":""hsl(290, 100%, 50%)""}]","[{""time_ms"":827},{""time_ms"":1630},{""time_ms"":2564},{""time_ms"":3497},{""time_ms"":4400},{""time_ms"":5346},{""time_ms"":6265},{""time_ms"":7211},{""time_ms"":8126},{""time_ms"":9044},{""time_ms"":9933},{""time_ms"":10807},{""time_ms"":11692},{""time_ms"":12550},{""time_ms"":13441},{""time_ms"":14389},{""time_ms"":15138},{""time_ms"":16026},{""time_ms"":16926},{""time_ms"":17825},{""time_ms"":18692},{""time_ms"":19530},{""time_ms"":20499},{""time_ms"":21543},{""time_ms"":22752},{""time_ms"":23660},{""time_ms"":24642},{""time_ms"":25588},{""time_ms"":26495},{""time_ms"":27456},{""time_ms"":28307},{""time_ms"":29150}]","30000","color","color-size","30010.8","7",""
"html-keyboard-response","43","487793","0.0-36.0-0.0","female","62","89","p1.1_6637b21240220c2517fffa1a","November 29, 2025 at 3:36 PM","November 29, 2025 at 3:52 PM","{""browser"":""Chrome"",""version"":""142""}","null","[""<div class='jspsych-display-element' style='justify-content: center; align-items: center; min-height: 80vh; width: 100%;'><div style='display: inline-block; margin: 0 auto; color: black; font-size: 2.5vh; line-height: 3.2vh; padding: 10px 200px 10px 200px; text-align: left'><p><div style='color: red; display: inline-block;'> <h1>Track Size</h1> </div> changes and <div style='color: red; display: inline-block;'> <h1>ignore Color</h1> </div> changes.</p><p>Press Enter to start the display.</p></div></div>""]","null","attendedFeatureInstr","","","","","","","","","","","","","","","","","","","","",""
"html-keyboard-response","44","489874","0.0-36.0-1.0","female","62","89","p1.1_6637b21240220c2517fffa1a","November 29, 2025 at 3:36 PM","November 29, 2025 at 3:52 PM","{""browser"":""Chrome"",""version"":""142""}","2081","[""<div class='jspsych-display-element' style='justify-content: center; align-items: center; min-height: 80vh; width: 100%;'><div style='display: inline-block; margin: 0 auto; color: black; font-size: 2.5vh; line-height: 3.2vh; padding: 10px 200px 10px 200px; text-align: left'><p><div style='color: red; display: inline-block;'> <h1>Track Size</h1> </div> changes and <div style='color: red; display: inline-block;'> <h1>ignore Color</h1> </div> changes.</p><p>Press Enter to start the display.</p></div></div>""]","enter","trialStartWaiting","","","","","","","","","","","","","","","","","","","","",""
"html-keyboard-response","45","490682","0.0-37.0","female","62","89","p1.1_6637b21240220c2517fffa1a","November 29, 2025 at 3:36 PM","November 29, 2025 at 3:52 PM","{""browser"":""Chrome"",""version"":""142""}","null","<p style='color: white; font-size: 50px; text-align: center'>+</p>","null","ITI","","","","","","","","","","","","","","","","","","","","",""
