"trial_type","trial_index","time_elapsed","internal_node_id","gender","age","attentionScore","participantID","experimentStartTime","experimentEndTime","browser","rt","stimulus","response","trial_category","mobile","success","sizeTempo","colorTempo","rectBaseSize","sizeChangeRate","sizeChangeAmount","rectChangedSize","baseColor","colorHueChangeAmount","colorHueChangeRate","colorChangedColor","sizeChangeLog","colorChangeLog","keypressLog","displayDurationSet","attendedFeature","testedFeaturePair","displayDurationActualized","trial","value"
"pavlovia","0","1201","0.0-0.0","male","29","100","p1.1_666149cb6a138209b157427b","November 30, 2025 at 11:30 AM","November 30, 2025 at 11:53 AM","{""browser"":""Chrome"",""version"":""142""}","","","","","","","","","","","","","","","","","","","","","","","","",""
"html-button-response","1","9253","0.0-1.0","male","29","100","p1.1_666149cb6a138209b157427b","November 30, 2025 at 11:30 AM","November 30, 2025 at 11:53 AM","{""browser"":""Chrome"",""version"":""142""}","8051","[""<div class='jspsych-display-element' style='justify-content: center; align-items: center; min-height: 80vh; width: 100%;'><div style='display: inline-block; margin: 0 auto; color: black; font-size: 2.5vh; line-height: 3.2vh; padding: 10px 200px 10px 200px; text-align: left'>Please note that this experiment is only designed to work from a computer or laptop.  Please <strong> do not </strong> continue if you are using a phone, tablet, or other mobile device.  If you are on a phone, tablet or other mobile device you will need to return to Prolific and click \""stop without completing\"".  <br> <br> If you are currently seeing this page from a laptop or computer, please click on the \""Continue\"" button.</div></div>""]","0","introInstructions","false","","","","","","","","","","","","","","","","","","","",""
"html-keyboard-response","2","12254","0.0-2.0","male","29","100","p1.1_666149cb6a138209b157427b","November 30, 2025 at 11:30 AM","November 30, 2025 at 11:53 AM","{""browser"":""Chrome"",""version"":""142""}","3000","<div class='jspsych-display-element' style='justify-content: center; align-items: center; min-height: 80vh; width: 100%;'><div style='display: inline-block; margin: 0 auto; color: black; font-size: 2.5vh; line-height: 3.2vh; padding: 10px 200px 10px 200px; text-align: left'>We wanted to provide a heads-up that the end of the experiment will consist of an anonymous survey with multiple questions. A few questions are open-ended questions where you need to type 1-2 sentences. Sometimes participants do not like answering open-ended questions and tend to quit a survey once they see such questions. <br> <br> If a sizable number of people quit a survey halfway, the responses will no longer be useful. Our research depends on good quality responses. Thus, please make sure you do not mind open-ended questions before continuing with experiment.<br> <br> <p><i><strong>Press 'y'</strong> on your keyboard if you agree to answer the open-ended questions at the end of the experiment.</i><br></div></div>","y","introInstructions","","","","","","","","","","","","","","","","","","","","",""
"fullscreen","3","15917","0.0-3.0","male","29","100","p1.1_666149cb6a138209b157427b","November 30, 2025 at 11:30 AM","November 30, 2025 at 11:53 AM","{""browser"":""Chrome"",""version"":""142""}","","","","introInstructions","","true","","","","","","","","","","","","","","","","","","",""
"html-button-response","4","17276","0.0-4.0","male","29","100","p1.1_666149cb6a138209b157427b","November 30, 2025 at 11:30 AM","November 30, 2025 at 11:53 AM","{""browser"":""Chrome"",""version"":""142""}","1359","<div class='jspsych-display-element' style='justify-content: center; align-items: center; min-height: 80vh; width: 100%;'><div style='display: inline-block; margin: 0 auto; color: black; font-size: 2.5vh; line-height: 3.2vh; padding: 10px 200px 10px 200px; text-align: left'>Hello! Thank you for volunteering to help out with our study. Please take a moment to adjust your seating so that you can comfortably watch the monitor and use the keyboard. Feel free to dim the lights as well.<br><br>Close the door or do whatever is necessary to <b>minimize disturbance during the experiment</b>. Please also take a moment to silence your phone so that you are not interrupted by any messages mid-experiment. Do not switch to any other tabs or windows until you are complete.<br><br>We will now go over the instructions. Please read these carefully, as you will not be able to complete this experiment without following them precisely.<br><br>A ""Next"" button will appear at the bottom of the screen on each page. This button will be greyed out at the beginning and will be activated after a few seconds (giving you time to read the instructions on each page). Please read everything on each page carefully before clicking on the ""Next"" button to continue to the next page.</div></div>","0","introInstructions","","","","","","","","","","","","","","","","","","","","",""
"instructionPractice","5","19124","0.0-5.0","male","29","100","p1.1_666149cb6a138209b157427b","November 30, 2025 at 11:30 AM","November 30, 2025 at 11:53 AM","{""browser"":""Chrome"",""version"":""142""}","","","","introInstructions","","","999999","300","[50,100]","1.2","[10,20]","[60,120]","hsl(210, 100%, 50%)","80","2.625","hsl(290, 100%, 50%)","[]","[{""timeMs"":303,""colorHsl"":""hsl(290, 100%, 50%)""},{""timeMs"":619,""colorHsl"":""hsl(210, 100%, 50%)""},{""timeMs"":936,""colorHsl"":""hsl(290, 100%, 50%)""},{""timeMs"":1252,""colorHsl"":""hsl(210, 100%, 50%)""}]","[]","5000","","","","",""
"instructionPractice","6","22716","0.0-6.0","male","29","100","p1.1_666149cb6a138209b157427b","November 30, 2025 at 11:30 AM","November 30, 2025 at 11:53 AM","{""browser"":""Chrome"",""version"":""142""}","","","","introInstructions","","","300","999999","[50,100]","1.2","[10,20]","[60,120]","hsl(210, 100%, 50%)","80","2.625","hsl(290, 100%, 50%)","[{""timeMs"":305,""rectSize"":[60,120]},{""timeMs"":621,""rectSize"":[50,100]},{""timeMs"":938,""rectSize"":[60,120]},{""timeMs"":1254,""rectSize"":[50,100]},{""timeMs"":1571,""rectSize"":[60,120]},{""timeMs"":1887,""rectSize"":[50,100]},{""timeMs"":2203,""rectSize"":[60,120]},{""timeMs"":2520,""rectSize"":[50,100]},{""timeMs"":2836,""rectSize"":[60,120]},{""timeMs"":3153,""rectSize"":[50,100]},{""timeMs"":3469,""rectSize"":[60,120]}]","[]","[]","5000","","","","",""
"html-button-response","7","23684","0.0-7.0","male","29","100","p1.1_666149cb6a138209b157427b","November 30, 2025 at 11:30 AM","November 30, 2025 at 11:53 AM","{""browser"":""Chrome"",""version"":""142""}","967","<div class='jspsych-display-element' style='justify-content: center; align-items: center; min-height: 80vh; width: 100%;'><div style='display: inline-block; margin: 0 auto; color: black; font-size: 2.5vh; line-height: 3.2vh; padding: 10px 200px 10px 200px; text-align: left'>In the examples so far, the rectangle alternated only one feature at a time (either its color or its size) rhythmically. In the actual experiment, both the color and the size will alternate together.<br><br>Let's see an example of this on the next page.</div></div>","0","introInstructions","","","","","","","","","","","","","","","","","","","","",""
"rhytmicFeatureChangeTask","8","32094","0.0-8.0","male","29","100","p1.1_666149cb6a138209b157427b","November 30, 2025 at 11:30 AM","November 30, 2025 at 11:53 AM","{""browser"":""Chrome"",""version"":""142""}","","","","introInstructions","","","320","280","[50,100]","1.2","[10,20]","[60,120]","hsl(210, 100%, 50%)","80","2.625","hsl(290, 100%, 50%)","[{""timeMs"":331,""rectSize"":[60,120]},{""timeMs"":664,""rectSize"":[50,100]},{""timeMs"":997,""rectSize"":[60,120]},{""timeMs"":1330,""rectSize"":[50,100]},{""timeMs"":1663,""rectSize"":[60,120]},{""timeMs"":1996,""rectSize"":[50,100]},{""timeMs"":2329,""rectSize"":[60,120]},{""timeMs"":2662,""rectSize"":[50,100]},{""timeMs"":2995,""rectSize"":[60,120]},{""timeMs"":3328,""rectSize"":[50,100]},{""timeMs"":3661,""rectSize"":[60,120]},{""timeMs"":3994,""rectSize"":[50,100]},{""timeMs"":4327,""rectSize"":[60,120]},{""timeMs"":4661,""rectSize"":[50,100]},{""timeMs"":4994,""rectSize"":[60,120]},{""timeMs"":5327,""rectSize"":[50,100]},{""timeMs"":5660,""rectSize"":[60,120]},{""timeMs"":5993,""rectSize"":[50,100]},{""timeMs"":6326,""rectSize"":[60,120]},{""timeMs"":6659,""rectSize"":[50,100]},{""timeMs"":6992,""rectSize"":[60,120]},{""timeMs"":7325,""rectSize"":[50,100]},{""timeMs"":7658,""rectSize"":[60,120]},{""timeMs"":7991,""rectSize"":[50,100]}]","[{""timeMs"":281,""colorHsl"":""hsl(290, 100%, 50%)""},{""timeMs"":564,""colorHsl"":""hsl(210, 100%, 50%)""},{""timeMs"":847,""colorHsl"":""hsl(290, 100%, 50%)""},{""timeMs"":1130,""colorHsl"":""hsl(210, 100%, 50%)""},{""timeMs"":1413,""colorHsl"":""hsl(290, 100%, 50%)""},{""timeMs"":1696,""colorHsl"":""hsl(210, 100%, 50%)""},{""timeMs"":1980,""colorHsl"":""hsl(290, 100%, 50%)""},{""timeMs"":2263,""colorHsl"":""hsl(210, 100%, 50%)""},{""timeMs"":2546,""colorHsl"":""hsl(290, 100%, 50%)""},{""timeMs"":2829,""colorHsl"":""hsl(210, 100%, 50%)""},{""timeMs"":3112,""colorHsl"":""hsl(290, 100%, 50%)""},{""timeMs"":3395,""colorHsl"":""hsl(210, 100%, 50%)""},{""timeMs"":3678,""colorHsl"":""hsl(290, 100%, 50%)""},{""timeMs"":3961,""colorHsl"":""hsl(210, 100%, 50%)""},{""timeMs"":4244,""colorHsl"":""hsl(290, 100%, 50%)""},{""timeMs"":4527,""colorHsl"":""hsl(210, 100%, 50%)""},{""timeMs"":4810,""colorHsl"":""hsl(290, 100%, 50%)""},{""timeMs"":5094,""colorHsl"":""hsl(210, 100%, 50%)""},{""timeMs"":5377,""colorHsl"":""hsl(290, 100%, 50%)""},{""timeMs"":5660,""colorHsl"":""hsl(210, 100%, 50%)""},{""timeMs"":5943,""colorHsl"":""hsl(290, 100%, 50%)""},{""timeMs"":6226,""colorHsl"":""hsl(210, 100%, 50%)""},{""timeMs"":6509,""colorHsl"":""hsl(290, 100%, 50%)""},{""timeMs"":6792,""colorHsl"":""hsl(210, 100%, 50%)""},{""timeMs"":7075,""colorHsl"":""hsl(290, 100%, 50%)""},{""timeMs"":7358,""colorHsl"":""hsl(210, 100%, 50%)""},{""timeMs"":7641,""colorHsl"":""hsl(290, 100%, 50%)""},{""timeMs"":7924,""colorHsl"":""hsl(210, 100%, 50%)""}]","[]","8000","color","color-size","8007.6","",""
"html-button-response","9","33028","0.0-9.0","male","29","100","p1.1_666149cb6a138209b157427b","November 30, 2025 at 11:30 AM","November 30, 2025 at 11:53 AM","{""browser"":""Chrome"",""version"":""142""}","933","<div class='jspsych-display-element' style='justify-content: center; align-items: center; min-height: 80vh; width: 100%;'><div style='display: inline-block; margin: 0 auto; color: black; font-size: 2.5vh; line-height: 3.2vh; padding: 10px 200px 10px 200px; text-align: left'>At the beginning of each display, you will be told which feature (color or size) to pay attention to. That is the feature you must keep track of (that feature's rhytmic changes). Whenever the instructed feature changes, you should respond by pressing the Space key. You must try to ignore the other feature, even though it may also be changing at the same time.<br><br>If you are instructed to pay attention to the color, you should press the Space key every time the rectangle changes to purple, and you should try to ignore any size changes throughout the whole display. If you are instructed to pay attention to the size, you should press the Space key every time the rectangle grows larger, and you should try to ignore color changes.<br><br>Because the alternations can be quite fast, you should try to press the Space key as quickly as possible when the relevant change occurs.<br><br>Let's practice first with the color feature.</div></div>","0","instructions","","","","","","","","","","","","","","","","","","","","",""
"html-button-response","10","36187","0.0-10.0","male","29","100","p1.1_666149cb6a138209b157427b","November 30, 2025 at 11:30 AM","November 30, 2025 at 11:53 AM","{""browser"":""Chrome"",""version"":""142""}","2758","<div class='jspsych-display-element' style='justify-content: center; align-items: center; min-height: 80vh; width: 100%;'><div style='display: inline-block; margin: 0 auto; color: black; font-size: 2.5vh; line-height: 3.2vh; padding: 10px 200px 10px 200px; text-align: left'>Pay attention to the <b>Color</b> change (press the Space key everytime the rectangle turns purple as soon as possible) and ignore the <b>Size</b> change.<br><br>Click on the 'Start' button to start the display. Since the display will start immediately,you should be ready to press the 'Space' key as soon as the rectangle starts alternating its color.</div></div>","0","introInstructions","","","","","","","","","","","","","","","","","","","","",""
"rhytmicFeatureChangeTask","11","56600","0.0-11.0","male","29","100","p1.1_666149cb6a138209b157427b","November 30, 2025 at 11:30 AM","November 30, 2025 at 11:53 AM","{""browser"":""Chrome"",""version"":""142""}","","","","introInstructions","","","500","700","[50,100]","1.2","[10,20]","[60,120]","hsl(210, 100%, 50%)","80","2.625","hsl(290, 100%, 50%)","[{""timeMs"":512,""rectSize"":[60,120]},{""timeMs"":1028,""rectSize"":[50,100]},{""timeMs"":1545,""rectSize"":[60,120]},{""timeMs"":2061,""rectSize"":[50,100]},{""timeMs"":2577,""rectSize"":[60,120]},{""timeMs"":3093,""rectSize"":[50,100]},{""timeMs"":3610,""rectSize"":[60,120]},{""timeMs"":4126,""rectSize"":[50,100]},{""timeMs"":4642,""rectSize"":[60,120]},{""timeMs"":5158,""rectSize"":[50,100]},{""timeMs"":5674,""rectSize"":[60,120]},{""timeMs"":6191,""rectSize"":[50,100]},{""timeMs"":6707,""rectSize"":[60,120]},{""timeMs"":7223,""rectSize"":[50,100]},{""timeMs"":7739,""rectSize"":[60,120]},{""timeMs"":8255,""rectSize"":[50,100]},{""timeMs"":8772,""rectSize"":[60,120]},{""timeMs"":9288,""rectSize"":[50,100]},{""timeMs"":9804,""rectSize"":[60,120]},{""timeMs"":10320,""rectSize"":[50,100]},{""timeMs"":10836,""rectSize"":[60,120]},{""timeMs"":11353,""rectSize"":[50,100]},{""timeMs"":11869,""rectSize"":[60,120]},{""timeMs"":12385,""rectSize"":[50,100]},{""timeMs"":12901,""rectSize"":[60,120]},{""timeMs"":13417,""rectSize"":[50,100]},{""timeMs"":13934,""rectSize"":[60,120]},{""timeMs"":14450,""rectSize"":[50,100]},{""timeMs"":14966,""rectSize"":[60,120]},{""timeMs"":15482,""rectSize"":[50,100]},{""timeMs"":15999,""rectSize"":[60,120]},{""timeMs"":16515,""rectSize"":[50,100]},{""timeMs"":17031,""rectSize"":[60,120]},{""timeMs"":17547,""rectSize"":[50,100]},{""timeMs"":18063,""rectSize"":[60,120]},{""timeMs"":18580,""rectSize"":[50,100]},{""timeMs"":19096,""rectSize"":[60,120]},{""timeMs"":19612,""rectSize"":[50,100]}]","[{""timeMs"":712,""colorHsl"":""hsl(290, 100%, 50%)""},{""timeMs"":1428,""colorHsl"":""hsl(210, 100%, 50%)""},{""timeMs"":2146,""colorHsl"":""hsl(290, 100%, 50%)""},{""timeMs"":2860,""colorHsl"":""hsl(210, 100%, 50%)""},{""timeMs"":3576,""colorHsl"":""hsl(290, 100%, 50%)""},{""timeMs"":4292,""colorHsl"":""hsl(210, 100%, 50%)""},{""timeMs"":5008,""colorHsl"":""hsl(290, 100%, 50%)""},{""timeMs"":5724,""colorHsl"":""hsl(210, 100%, 50%)""},{""timeMs"":6440,""colorHsl"":""hsl(290, 100%, 50%)""},{""timeMs"":7156,""colorHsl"":""hsl(210, 100%, 50%)""},{""timeMs"":7872,""colorHsl"":""hsl(290, 100%, 50%)""},{""timeMs"":8588,""colorHsl"":""hsl(210, 100%, 50%)""},{""timeMs"":9305,""colorHsl"":""hsl(290, 100%, 50%)""},{""timeMs"":10021,""colorHsl"":""hsl(210, 100%, 50%)""},{""timeMs"":10737,""colorHsl"":""hsl(290, 100%, 50%)""},{""timeMs"":11453,""colorHsl"":""hsl(210, 100%, 50%)""},{""timeMs"":12169,""colorHsl"":""hsl(290, 100%, 50%)""},{""timeMs"":12885,""colorHsl"":""hsl(210, 100%, 50%)""},{""timeMs"":13601,""colorHsl"":""hsl(290, 100%, 50%)""},{""timeMs"":14317,""colorHsl"":""hsl(210, 100%, 50%)""},{""timeMs"":15033,""colorHsl"":""hsl(290, 100%, 50%)""},{""timeMs"":15749,""colorHsl"":""hsl(210, 100%, 50%)""},{""timeMs"":16465,""colorHsl"":""hsl(290, 100%, 50%)""},{""timeMs"":17181,""colorHsl"":""hsl(210, 100%, 50%)""},{""timeMs"":17897,""colorHsl"":""hsl(290, 100%, 50%)""},{""timeMs"":18613,""colorHsl"":""hsl(210, 100%, 50%)""},{""timeMs"":19329,""colorHsl"":""hsl(290, 100%, 50%)""}]","[{""time_ms"":697},{""time_ms"":2314},{""time_ms"":3846},{""time_ms"":5225},{""time_ms"":6496},{""time_ms"":7976},{""time_ms"":9521},{""time_ms"":11049},{""time_ms"":12424},{""time_ms"":13856},{""time_ms"":15355},{""time_ms"":16727},{""time_ms"":18165},{""time_ms"":19567}]","20000","color","color-size","20011.7","",""
"html-button-response","12","58642","0.0-12.0","male","29","100","p1.1_666149cb6a138209b157427b","November 30, 2025 at 11:30 AM","November 30, 2025 at 11:53 AM","{""browser"":""Chrome"",""version"":""142""}","2042","<div class='jspsych-display-element' style='justify-content: center; align-items: center; min-height: 80vh; width: 100%;'><div style='display: inline-block; margin: 0 auto; color: black; font-size: 2.5vh; line-height: 3.2vh; padding: 10px 200px 10px 200px; text-align: left'>Pay attention to the <b>Size</b> change (press the Space key everytime the rectangle grows larger as soon as possible) and ignore the <b>Color</b> change.<br><br>Click on the 'Start' button to start the display.</div></div>","0","introInstructions","","","","","","","","","","","","","","","","","","","","",""
"rhytmicFeatureChangeTask","13","79055","0.0-13.0","male","29","100","p1.1_666149cb6a138209b157427b","November 30, 2025 at 11:30 AM","November 30, 2025 at 11:53 AM","{""browser"":""Chrome"",""version"":""142""}","","","","introInstructions","","","700","500","[50,100]","1.2","[10,20]","[60,120]","hsl(210, 100%, 50%)","80","2.625","hsl(290, 100%, 50%)","[{""timeMs"":712,""rectSize"":[60,120]},{""timeMs"":1428,""rectSize"":[50,100]},{""timeMs"":2144,""rectSize"":[60,120]},{""timeMs"":2860,""rectSize"":[50,100]},{""timeMs"":3576,""rectSize"":[60,120]},{""timeMs"":4292,""rectSize"":[50,100]},{""timeMs"":5008,""rectSize"":[60,120]},{""timeMs"":5724,""rectSize"":[50,100]},{""timeMs"":6440,""rectSize"":[60,120]},{""timeMs"":7156,""rectSize"":[50,100]},{""timeMs"":7873,""rectSize"":[60,120]},{""timeMs"":8589,""rectSize"":[50,100]},{""timeMs"":9305,""rectSize"":[60,120]},{""timeMs"":10021,""rectSize"":[50,100]},{""timeMs"":10737,""rectSize"":[60,120]},{""timeMs"":11453,""rectSize"":[50,100]},{""timeMs"":12169,""rectSize"":[60,120]},{""timeMs"":12885,""rectSize"":[50,100]},{""timeMs"":13601,""rectSize"":[60,120]},{""timeMs"":14317,""rectSize"":[50,100]},{""timeMs"":15033,""rectSize"":[60,120]},{""timeMs"":15749,""rectSize"":[50,100]},{""timeMs"":16465,""rectSize"":[60,120]},{""timeMs"":17181,""rectSize"":[50,100]},{""timeMs"":17897,""rectSize"":[60,120]},{""timeMs"":18613,""rectSize"":[50,100]},{""timeMs"":19329,""rectSize"":[60,120]}]","[{""timeMs"":512,""colorHsl"":""hsl(290, 100%, 50%)""},{""timeMs"":1028,""colorHsl"":""hsl(210, 100%, 50%)""},{""timeMs"":1545,""colorHsl"":""hsl(290, 100%, 50%)""},{""timeMs"":2061,""colorHsl"":""hsl(210, 100%, 50%)""},{""timeMs"":2577,""colorHsl"":""hsl(290, 100%, 50%)""},{""timeMs"":3093,""colorHsl"":""hsl(210, 100%, 50%)""},{""timeMs"":3610,""colorHsl"":""hsl(290, 100%, 50%)""},{""timeMs"":4126,""colorHsl"":""hsl(210, 100%, 50%)""},{""timeMs"":4642,""colorHsl"":""hsl(290, 100%, 50%)""},{""timeMs"":5158,""colorHsl"":""hsl(210, 100%, 50%)""},{""timeMs"":5674,""colorHsl"":""hsl(290, 100%, 50%)""},{""timeMs"":6191,""colorHsl"":""hsl(210, 100%, 50%)""},{""timeMs"":6707,""colorHsl"":""hsl(290, 100%, 50%)""},{""timeMs"":7223,""colorHsl"":""hsl(210, 100%, 50%)""},{""timeMs"":7739,""colorHsl"":""hsl(290, 100%, 50%)""},{""timeMs"":8255,""colorHsl"":""hsl(210, 100%, 50%)""},{""timeMs"":8772,""colorHsl"":""hsl(290, 100%, 50%)""},{""timeMs"":9288,""colorHsl"":""hsl(210, 100%, 50%)""},{""timeMs"":9804,""colorHsl"":""hsl(290, 100%, 50%)""},{""timeMs"":10320,""colorHsl"":""hsl(210, 100%, 50%)""},{""timeMs"":10837,""colorHsl"":""hsl(290, 100%, 50%)""},{""timeMs"":11353,""colorHsl"":""hsl(210, 100%, 50%)""},{""timeMs"":11869,""colorHsl"":""hsl(290, 100%, 50%)""},{""timeMs"":12385,""colorHsl"":""hsl(210, 100%, 50%)""},{""timeMs"":12902,""colorHsl"":""hsl(290, 100%, 50%)""},{""timeMs"":13418,""colorHsl"":""hsl(210, 100%, 50%)""},{""timeMs"":13934,""colorHsl"":""hsl(290, 100%, 50%)""},{""timeMs"":14450,""colorHsl"":""hsl(210, 100%, 50%)""},{""timeMs"":14966,""colorHsl"":""hsl(290, 100%, 50%)""},{""timeMs"":15483,""colorHsl"":""hsl(210, 100%, 50%)""},{""timeMs"":15999,""colorHsl"":""hsl(290, 100%, 50%)""},{""timeMs"":16515,""colorHsl"":""hsl(210, 100%, 50%)""},{""timeMs"":17031,""colorHsl"":""hsl(290, 100%, 50%)""},{""timeMs"":17547,""colorHsl"":""hsl(210, 100%, 50%)""},{""timeMs"":18064,""colorHsl"":""hsl(290, 100%, 50%)""},{""timeMs"":18580,""colorHsl"":""hsl(210, 100%, 50%)""},{""timeMs"":19096,""colorHsl"":""hsl(290, 100%, 50%)""},{""timeMs"":19612,""colorHsl"":""hsl(210, 100%, 50%)""}]","[{""time_ms"":962},{""time_ms"":2383},{""time_ms"":3825},{""time_ms"":5307},{""time_ms"":6710},{""time_ms"":8134},{""time_ms"":9590},{""time_ms"":10974},{""time_ms"":12433},{""time_ms"":13848},{""time_ms"":15349},{""time_ms"":16770},{""time_ms"":18175},{""time_ms"":19626}]","20000","size","color-size","20012","",""
"html-button-response","14","131175","0.0-14.0","male","29","100","p1.1_666149cb6a138209b157427b","November 30, 2025 at 11:30 AM","November 30, 2025 at 11:53 AM","{""browser"":""Chrome"",""version"":""142""}","52119","<div class='jspsych-display-element' style='justify-content: center; align-items: center; min-height: 80vh; width: 100%;'><div style='display: inline-block; margin: 0 auto; color: black; font-size: 2.5vh; line-height: 3.2vh; padding: 10px 200px 10px 200px; text-align: left'>That's it. You will just do this same task for about 10 minutes. The rhythm of alternation will vary from one display to the next. Sometimes the color alternation will be faster than the size alternation, sometimes the size will be faster than the color.<br><br>Regardless of these variations, your task remains the same. If you are asked to pay attention to the color, press the Space key everytime the rectangle changes to purple as soon as possible and ignore the size changes. If you are asked to pay attention to the size, press the Space key everytime the rectangle grows larger as soon as possible and ignore the color changes.<br><br>You may find it difficult at times to ignore the other feature, and that is completely normal. The experiment is designed to be challenging in this way. Please do your best to stay focused for the whole task, as your responses are only useful if you give your full attention to the instructed feature.<br><br>Please always use your dominant hand to press the 'Space' key. You can now start the experiment when you are ready.</div></div>","0","introInstructions","","","","","","","","","","","","","","","","","","","","",""
"html-keyboard-response","15","131976","0.0-15.0-0.0","male","29","100","p1.1_666149cb6a138209b157427b","November 30, 2025 at 11:30 AM","November 30, 2025 at 11:53 AM","{""browser"":""Chrome"",""version"":""142""}","null","[""<div class='jspsych-display-element' style='justify-content: center; align-items: center; min-height: 80vh; width: 100%;'><div style='display: inline-block; margin: 0 auto; color: black; font-size: 2.5vh; line-height: 3.2vh; padding: 10px 200px 10px 200px; text-align: left'><p><div style='color: red; display: inline-block;'> <h1>Track Size</h1> </div> changes and <div style='color: red; display: inline-block;'> <h1>ignore Color</h1> </div> changes.</p><p>Press Enter to start the display.</p></div></div>""]","null","attendedFeatureInstr","","","","","","","","","","","","","","","","","","","","",""
"html-keyboard-response","16","135563","0.0-15.0-1.0","male","29","100","p1.1_666149cb6a138209b157427b","November 30, 2025 at 11:30 AM","November 30, 2025 at 11:53 AM","{""browser"":""Chrome"",""version"":""142""}","3587","[""<div class='jspsych-display-element' style='justify-content: center; align-items: center; min-height: 80vh; width: 100%;'><div style='display: inline-block; margin: 0 auto; color: black; font-size: 2.5vh; line-height: 3.2vh; padding: 10px 200px 10px 200px; text-align: left'><p><div style='color: red; display: inline-block;'> <h1>Track Size</h1> </div> changes and <div style='color: red; display: inline-block;'> <h1>ignore Color</h1> </div> changes.</p><p>Press Enter to start the display.</p></div></div>""]","enter","trialStartWaiting","","","","","","","","","","","","","","","","","","","","",""
"html-keyboard-response","17","136358","0.0-16.0","male","29","100","p1.1_666149cb6a138209b157427b","November 30, 2025 at 11:30 AM","November 30, 2025 at 11:53 AM","{""browser"":""Chrome"",""version"":""142""}","null","<p style='color: white; font-size: 50px; text-align: center'>+</p>","null","ITI","","","","","","","","","","","","","","","","","","","","",""
"rhytmicFeatureChangeTask","18","166373","0.0-17.0","male","29","100","p1.1_666149cb6a138209b157427b","November 30, 2025 at 11:30 AM","November 30, 2025 at 11:53 AM","{""browser"":""Chrome"",""version"":""142""}","","","","test","","","400","350","[50,100]","1.2","[10,20]","[60,120]","hsl(210, 100%, 50%)","80","2.625","hsl(290, 100%, 50%)","[{""timeMs"":407,""rectSize"":[60,120]},{""timeMs"":823,""rectSize"":[50,100]},{""timeMs"":1240,""rectSize"":[60,120]},{""timeMs"":1656,""rectSize"":[50,100]},{""timeMs"":2072,""rectSize"":[60,120]},{""timeMs"":2489,""rectSize"":[50,100]},{""timeMs"":2905,""rectSize"":[60,120]},{""timeMs"":3321,""rectSize"":[50,100]},{""timeMs"":3738,""rectSize"":[60,120]},{""timeMs"":4154,""rectSize"":[50,100]},{""timeMs"":4570,""rectSize"":[60,120]},{""timeMs"":4986,""rectSize"":[50,100]},{""timeMs"":5403,""rectSize"":[60,120]},{""timeMs"":5819,""rectSize"":[50,100]},{""timeMs"":6235,""rectSize"":[60,120]},{""timeMs"":6652,""rectSize"":[50,100]},{""timeMs"":7068,""rectSize"":[60,120]},{""timeMs"":7484,""rectSize"":[50,100]},{""timeMs"":7901,""rectSize"":[60,120]},{""timeMs"":8317,""rectSize"":[50,100]},{""timeMs"":8733,""rectSize"":[60,120]},{""timeMs"":9150,""rectSize"":[50,100]},{""timeMs"":9566,""rectSize"":[60,120]},{""timeMs"":9982,""rectSize"":[50,100]},{""timeMs"":10398,""rectSize"":[60,120]},{""timeMs"":10815,""rectSize"":[50,100]},{""timeMs"":11231,""rectSize"":[60,120]},{""timeMs"":11647,""rectSize"":[50,100]},{""timeMs"":12064,""rectSize"":[60,120]},{""timeMs"":12480,""rectSize"":[50,100]},{""timeMs"":12896,""rectSize"":[60,120]},{""timeMs"":13313,""rectSize"":[50,100]},{""timeMs"":13729,""rectSize"":[60,120]},{""timeMs"":14145,""rectSize"":[50,100]},{""timeMs"":14562,""rectSize"":[60,120]},{""timeMs"":14978,""rectSize"":[50,100]},{""timeMs"":15394,""rectSize"":[60,120]},{""timeMs"":15810,""rectSize"":[50,100]},{""timeMs"":16227,""rectSize"":[60,120]},{""timeMs"":16643,""rectSize"":[50,100]},{""timeMs"":17060,""rectSize"":[60,120]},{""timeMs"":17476,""rectSize"":[50,100]},{""timeMs"":17892,""rectSize"":[60,120]},{""timeMs"":18308,""rectSize"":[50,100]},{""timeMs"":18725,""rectSize"":[60,120]},{""timeMs"":19141,""rectSize"":[50,100]},{""timeMs"":19557,""rectSize"":[60,120]},{""timeMs"":19974,""rectSize"":[50,100]},{""timeMs"":20390,""rectSize"":[60,120]},{""timeMs"":20806,""rectSize"":[50,100]},{""timeMs"":21222,""rectSize"":[60,120]},{""timeMs"":21639,""rectSize"":[50,100]},{""timeMs"":22055,""rectSize"":[60,120]},{""timeMs"":22471,""rectSize"":[50,100]},{""timeMs"":22888,""rectSize"":[60,120]},{""timeMs"":23304,""rectSize"":[50,100]},{""timeMs"":23720,""rectSize"":[60,120]},{""timeMs"":24137,""rectSize"":[50,100]},{""timeMs"":24553,""rectSize"":[60,120]},{""timeMs"":24969,""rectSize"":[50,100]},{""timeMs"":25385,""rectSize"":[60,120]},{""timeMs"":25802,""rectSize"":[50,100]},{""timeMs"":26218,""rectSize"":[60,120]},{""timeMs"":26634,""rectSize"":[50,100]},{""timeMs"":27051,""rectSize"":[60,120]},{""timeMs"":27467,""rectSize"":[50,100]},{""timeMs"":27883,""rectSize"":[60,120]},{""timeMs"":28300,""rectSize"":[50,100]},{""timeMs"":28716,""rectSize"":[60,120]},{""timeMs"":29132,""rectSize"":[50,100]},{""timeMs"":29549,""rectSize"":[60,120]},{""timeMs"":29965,""rectSize"":[50,100]}]","[{""timeMs"":357,""colorHsl"":""hsl(290, 100%, 50%)""},{""timeMs"":723,""colorHsl"":""hsl(210, 100%, 50%)""},{""timeMs"":1090,""colorHsl"":""hsl(290, 100%, 50%)""},{""timeMs"":1456,""colorHsl"":""hsl(210, 100%, 50%)""},{""timeMs"":1823,""colorHsl"":""hsl(290, 100%, 50%)""},{""timeMs"":2189,""colorHsl"":""hsl(210, 100%, 50%)""},{""timeMs"":2555,""colorHsl"":""hsl(290, 100%, 50%)""},{""timeMs"":2922,""colorHsl"":""hsl(210, 100%, 50%)""},{""timeMs"":3288,""colorHsl"":""hsl(290, 100%, 50%)""},{""timeMs"":3654,""colorHsl"":""hsl(210, 100%, 50%)""},{""timeMs"":4021,""colorHsl"":""hsl(290, 100%, 50%)""},{""timeMs"":4387,""colorHsl"":""hsl(210, 100%, 50%)""},{""timeMs"":4753,""colorHsl"":""hsl(290, 100%, 50%)""},{""timeMs"":5120,""colorHsl"":""hsl(210, 100%, 50%)""},{""timeMs"":5486,""colorHsl"":""hsl(290, 100%, 50%)""},{""timeMs"":5852,""colorHsl"":""hsl(210, 100%, 50%)""},{""timeMs"":6219,""colorHsl"":""hsl(290, 100%, 50%)""},{""timeMs"":6585,""colorHsl"":""hsl(210, 100%, 50%)""},{""timeMs"":6951,""colorHsl"":""hsl(290, 100%, 50%)""},{""timeMs"":7318,""colorHsl"":""hsl(210, 100%, 50%)""},{""timeMs"":7684,""colorHsl"":""hsl(290, 100%, 50%)""},{""timeMs"":8051,""colorHsl"":""hsl(210, 100%, 50%)""},{""timeMs"":8417,""colorHsl"":""hsl(290, 100%, 50%)""},{""timeMs"":8783,""colorHsl"":""hsl(210, 100%, 50%)""},{""timeMs"":9150,""colorHsl"":""hsl(290, 100%, 50%)""},{""timeMs"":9516,""colorHsl"":""hsl(210, 100%, 50%)""},{""timeMs"":9882,""colorHsl"":""hsl(290, 100%, 50%)""},{""timeMs"":10249,""colorHsl"":""hsl(210, 100%, 50%)""},{""timeMs"":10615,""colorHsl"":""hsl(290, 100%, 50%)""},{""timeMs"":10981,""colorHsl"":""hsl(210, 100%, 50%)""},{""timeMs"":11348,""colorHsl"":""hsl(290, 100%, 50%)""},{""timeMs"":11714,""colorHsl"":""hsl(210, 100%, 50%)""},{""timeMs"":12080,""colorHsl"":""hsl(290, 100%, 50%)""},{""timeMs"":12447,""colorHsl"":""hsl(210, 100%, 50%)""},{""timeMs"":12813,""colorHsl"":""hsl(290, 100%, 50%)""},{""timeMs"":13179,""colorHsl"":""hsl(210, 100%, 50%)""},{""timeMs"":13546,""colorHsl"":""hsl(290, 100%, 50%)""},{""timeMs"":13912,""colorHsl"":""hsl(210, 100%, 50%)""},{""timeMs"":14278,""colorHsl"":""hsl(290, 100%, 50%)""},{""timeMs"":14645,""colorHsl"":""hsl(210, 100%, 50%)""},{""timeMs"":15011,""colorHsl"":""hsl(290, 100%, 50%)""},{""timeMs"":15378,""colorHsl"":""hsl(210, 100%, 50%)""},{""timeMs"":15744,""colorHsl"":""hsl(290, 100%, 50%)""},{""timeMs"":16110,""colorHsl"":""hsl(210, 100%, 50%)""},{""timeMs"":16477,""colorHsl"":""hsl(290, 100%, 50%)""},{""timeMs"":16843,""colorHsl"":""hsl(210, 100%, 50%)""},{""timeMs"":17209,""colorHsl"":""hsl(290, 100%, 50%)""},{""timeMs"":17576,""colorHsl"":""hsl(210, 100%, 50%)""},{""timeMs"":17942,""colorHsl"":""hsl(290, 100%, 50%)""},{""timeMs"":18308,""colorHsl"":""hsl(210, 100%, 50%)""},{""timeMs"":18675,""colorHsl"":""hsl(290, 100%, 50%)""},{""timeMs"":19041,""colorHsl"":""hsl(210, 100%, 50%)""},{""timeMs"":19407,""colorHsl"":""hsl(290, 100%, 50%)""},{""timeMs"":19774,""colorHsl"":""hsl(210, 100%, 50%)""},{""timeMs"":20140,""colorHsl"":""hsl(290, 100%, 50%)""},{""timeMs"":20506,""colorHsl"":""hsl(210, 100%, 50%)""},{""timeMs"":20873,""colorHsl"":""hsl(290, 100%, 50%)""},{""timeMs"":21239,""colorHsl"":""hsl(210, 100%, 50%)""},{""timeMs"":21605,""colorHsl"":""hsl(290, 100%, 50%)""},{""timeMs"":21974,""colorHsl"":""hsl(210, 100%, 50%)""},{""timeMs"":22338,""colorHsl"":""hsl(290, 100%, 50%)""},{""timeMs"":22704,""colorHsl"":""hsl(210, 100%, 50%)""},{""timeMs"":23071,""colorHsl"":""hsl(290, 100%, 50%)""},{""timeMs"":23437,""colorHsl"":""hsl(210, 100%, 50%)""},{""timeMs"":23804,""colorHsl"":""hsl(290, 100%, 50%)""},{""timeMs"":24170,""colorHsl"":""hsl(210, 100%, 50%)""},{""timeMs"":24536,""colorHsl"":""hsl(290, 100%, 50%)""},{""timeMs"":24903,""colorHsl"":""hsl(210, 100%, 50%)""},{""timeMs"":25269,""colorHsl"":""hsl(290, 100%, 50%)""},{""timeMs"":25635,""colorHsl"":""hsl(210, 100%, 50%)""},{""timeMs"":26002,""colorHsl"":""hsl(290, 100%, 50%)""},{""timeMs"":26368,""colorHsl"":""hsl(210, 100%, 50%)""},{""timeMs"":26734,""colorHsl"":""hsl(290, 100%, 50%)""},{""timeMs"":27101,""colorHsl"":""hsl(210, 100%, 50%)""},{""timeMs"":27467,""colorHsl"":""hsl(290, 100%, 50%)""},{""timeMs"":27833,""colorHsl"":""hsl(210, 100%, 50%)""},{""timeMs"":28200,""colorHsl"":""hsl(290, 100%, 50%)""},{""timeMs"":28566,""colorHsl"":""hsl(210, 100%, 50%)""},{""timeMs"":28933,""colorHsl"":""hsl(290, 100%, 50%)""},{""timeMs"":29299,""colorHsl"":""hsl(210, 100%, 50%)""},{""timeMs"":29665,""colorHsl"":""hsl(290, 100%, 50%)""}]","[{""time_ms"":701},{""time_ms"":1560},{""time_ms"":2352},{""time_ms"":3196},{""time_ms"":4032},{""time_ms"":4891},{""time_ms"":5709},{""time_ms"":6553},{""time_ms"":7365},{""time_ms"":8215},{""time_ms"":9044},{""time_ms"":9886},{""time_ms"":10692},{""time_ms"":11530},{""time_ms"":12420},{""time_ms"":13230},{""time_ms"":14005},{""time_ms"":14842},{""time_ms"":15658},{""time_ms"":16546},{""time_ms"":17350},{""time_ms"":18173},{""time_ms"":19001},{""time_ms"":19785},{""time_ms"":20656},{""time_ms"":21521},{""time_ms"":22332},{""time_ms"":23193},{""time_ms"":24014},{""time_ms"":24827},{""time_ms"":25670},{""time_ms"":26491},{""time_ms"":27298},{""time_ms"":28115},{""time_ms"":28969},{""time_ms"":29788}]","30000","size","color-size","30014.8","1",""
"html-keyboard-response","19","166774","0.0-18.0-0.0","male","29","100","p1.1_666149cb6a138209b157427b","November 30, 2025 at 11:30 AM","November 30, 2025 at 11:53 AM","{""browser"":""Chrome"",""version"":""142""}","null","[""<div class='jspsych-display-element' style='justify-content: center; align-items: center; min-height: 80vh; width: 100%;'><div style='display: inline-block; margin: 0 auto; color: black; font-size: 2.5vh; line-height: 3.2vh; padding: 10px 200px 10px 200px; text-align: left'><p><div style='color: red; display: inline-block;'> <h1>Track Color</h1> </div> changes and <div style='color: red; display: inline-block;'> <h1>ignore Size</h1> </div> changes.</p><p>Press Enter to start the display.</p></div></div>""]","null","attendedFeatureInstr","","","","","","","","","","","","","","","","","","","","",""
"html-keyboard-response","20","173834","0.0-18.0-1.0","male","29","100","p1.1_666149cb6a138209b157427b","November 30, 2025 at 11:30 AM","November 30, 2025 at 11:53 AM","{""browser"":""Chrome"",""version"":""142""}","7060","[""<div class='jspsych-display-element' style='justify-content: center; align-items: center; min-height: 80vh; width: 100%;'><div style='display: inline-block; margin: 0 auto; color: black; font-size: 2.5vh; line-height: 3.2vh; padding: 10px 200px 10px 200px; text-align: left'><p><div style='color: red; display: inline-block;'> <h1>Track Color</h1> </div> changes and <div style='color: red; display: inline-block;'> <h1>ignore Size</h1> </div> changes.</p><p>Press Enter to start the display.</p></div></div>""]","enter","trialStartWaiting","","","","","","","","","","","","","","","","","","","","",""
"html-keyboard-response","21","174613","0.0-19.0","male","29","100","p1.1_666149cb6a138209b157427b","November 30, 2025 at 11:30 AM","November 30, 2025 at 11:53 AM","{""browser"":""Chrome"",""version"":""142""}","null","<p style='color: white; font-size: 50px; text-align: center'>+</p>","null","ITI","","","","","","","","","","","","","","","","","","","","",""
"rhytmicFeatureChangeTask","22","204628","0.0-20.0","male","29","100","p1.1_666149cb6a138209b157427b","November 30, 2025 at 11:30 AM","November 30, 2025 at 11:53 AM","{""browser"":""Chrome"",""version"":""142""}","","","","test","","","450","500","[50,100]","1.2","[10,20]","[60,120]","hsl(210, 100%, 50%)","80","2.625","hsl(290, 100%, 50%)","[{""timeMs"":457,""rectSize"":[60,120]},{""timeMs"":923,""rectSize"":[50,100]},{""timeMs"":1390,""rectSize"":[60,120]},{""timeMs"":1856,""rectSize"":[50,100]},{""timeMs"":2322,""rectSize"":[60,120]},{""timeMs"":2788,""rectSize"":[50,100]},{""timeMs"":3255,""rectSize"":[60,120]},{""timeMs"":3721,""rectSize"":[50,100]},{""timeMs"":4187,""rectSize"":[60,120]},{""timeMs"":4654,""rectSize"":[50,100]},{""timeMs"":5120,""rectSize"":[60,120]},{""timeMs"":5586,""rectSize"":[50,100]},{""timeMs"":6052,""rectSize"":[60,120]},{""timeMs"":6519,""rectSize"":[50,100]},{""timeMs"":6985,""rectSize"":[60,120]},{""timeMs"":7451,""rectSize"":[50,100]},{""timeMs"":7918,""rectSize"":[60,120]},{""timeMs"":8384,""rectSize"":[50,100]},{""timeMs"":8850,""rectSize"":[60,120]},{""timeMs"":9316,""rectSize"":[50,100]},{""timeMs"":9782,""rectSize"":[60,120]},{""timeMs"":10249,""rectSize"":[50,100]},{""timeMs"":10715,""rectSize"":[60,120]},{""timeMs"":11181,""rectSize"":[50,100]},{""timeMs"":11648,""rectSize"":[60,120]},{""timeMs"":12114,""rectSize"":[50,100]},{""timeMs"":12580,""rectSize"":[60,120]},{""timeMs"":13047,""rectSize"":[50,100]},{""timeMs"":13513,""rectSize"":[60,120]},{""timeMs"":13979,""rectSize"":[50,100]},{""timeMs"":14445,""rectSize"":[60,120]},{""timeMs"":14911,""rectSize"":[50,100]},{""timeMs"":15378,""rectSize"":[60,120]},{""timeMs"":15844,""rectSize"":[50,100]},{""timeMs"":16310,""rectSize"":[60,120]},{""timeMs"":16777,""rectSize"":[50,100]},{""timeMs"":17243,""rectSize"":[60,120]},{""timeMs"":17709,""rectSize"":[50,100]},{""timeMs"":18175,""rectSize"":[60,120]},{""timeMs"":18642,""rectSize"":[50,100]},{""timeMs"":19108,""rectSize"":[60,120]},{""timeMs"":19574,""rectSize"":[50,100]},{""timeMs"":20040,""rectSize"":[60,120]},{""timeMs"":20507,""rectSize"":[50,100]},{""timeMs"":20973,""rectSize"":[60,120]},{""timeMs"":21439,""rectSize"":[50,100]},{""timeMs"":21905,""rectSize"":[60,120]},{""timeMs"":22372,""rectSize"":[50,100]},{""timeMs"":22838,""rectSize"":[60,120]},{""timeMs"":23288,""rectSize"":[50,100]},{""timeMs"":23754,""rectSize"":[60,120]},{""timeMs"":24220,""rectSize"":[50,100]},{""timeMs"":24686,""rectSize"":[60,120]},{""timeMs"":25153,""rectSize"":[50,100]},{""timeMs"":25619,""rectSize"":[60,120]},{""timeMs"":26085,""rectSize"":[50,100]},{""timeMs"":26551,""rectSize"":[60,120]},{""timeMs"":27018,""rectSize"":[50,100]},{""timeMs"":27484,""rectSize"":[60,120]},{""timeMs"":27950,""rectSize"":[50,100]},{""timeMs"":28416,""rectSize"":[60,120]},{""timeMs"":28883,""rectSize"":[50,100]},{""timeMs"":29349,""rectSize"":[60,120]},{""timeMs"":29815,""rectSize"":[50,100]}]","[{""timeMs"":507,""colorHsl"":""hsl(290, 100%, 50%)""},{""timeMs"":1023,""colorHsl"":""hsl(210, 100%, 50%)""},{""timeMs"":1540,""colorHsl"":""hsl(290, 100%, 50%)""},{""timeMs"":2056,""colorHsl"":""hsl(210, 100%, 50%)""},{""timeMs"":2572,""colorHsl"":""hsl(290, 100%, 50%)""},{""timeMs"":3088,""colorHsl"":""hsl(210, 100%, 50%)""},{""timeMs"":3604,""colorHsl"":""hsl(290, 100%, 50%)""},{""timeMs"":4121,""colorHsl"":""hsl(210, 100%, 50%)""},{""timeMs"":4637,""colorHsl"":""hsl(290, 100%, 50%)""},{""timeMs"":5153,""colorHsl"":""hsl(210, 100%, 50%)""},{""timeMs"":5669,""colorHsl"":""hsl(290, 100%, 50%)""},{""timeMs"":6186,""colorHsl"":""hsl(210, 100%, 50%)""},{""timeMs"":6702,""colorHsl"":""hsl(290, 100%, 50%)""},{""timeMs"":7218,""colorHsl"":""hsl(210, 100%, 50%)""},{""timeMs"":7734,""colorHsl"":""hsl(290, 100%, 50%)""},{""timeMs"":8250,""colorHsl"":""hsl(210, 100%, 50%)""},{""timeMs"":8767,""colorHsl"":""hsl(290, 100%, 50%)""},{""timeMs"":9283,""colorHsl"":""hsl(210, 100%, 50%)""},{""timeMs"":9799,""colorHsl"":""hsl(290, 100%, 50%)""},{""timeMs"":10315,""colorHsl"":""hsl(210, 100%, 50%)""},{""timeMs"":10832,""colorHsl"":""hsl(290, 100%, 50%)""},{""timeMs"":11348,""colorHsl"":""hsl(210, 100%, 50%)""},{""timeMs"":11864,""colorHsl"":""hsl(290, 100%, 50%)""},{""timeMs"":12380,""colorHsl"":""hsl(210, 100%, 50%)""},{""timeMs"":12896,""colorHsl"":""hsl(290, 100%, 50%)""},{""timeMs"":13413,""colorHsl"":""hsl(210, 100%, 50%)""},{""timeMs"":13929,""colorHsl"":""hsl(290, 100%, 50%)""},{""timeMs"":14445,""colorHsl"":""hsl(210, 100%, 50%)""},{""timeMs"":14961,""colorHsl"":""hsl(290, 100%, 50%)""},{""timeMs"":15477,""colorHsl"":""hsl(210, 100%, 50%)""},{""timeMs"":15994,""colorHsl"":""hsl(290, 100%, 50%)""},{""timeMs"":16510,""colorHsl"":""hsl(210, 100%, 50%)""},{""timeMs"":17026,""colorHsl"":""hsl(290, 100%, 50%)""},{""timeMs"":17542,""colorHsl"":""hsl(210, 100%, 50%)""},{""timeMs"":18059,""colorHsl"":""hsl(290, 100%, 50%)""},{""timeMs"":18575,""colorHsl"":""hsl(210, 100%, 50%)""},{""timeMs"":19091,""colorHsl"":""hsl(290, 100%, 50%)""},{""timeMs"":19607,""colorHsl"":""hsl(210, 100%, 50%)""},{""timeMs"":20123,""colorHsl"":""hsl(290, 100%, 50%)""},{""timeMs"":20640,""colorHsl"":""hsl(210, 100%, 50%)""},{""timeMs"":21156,""colorHsl"":""hsl(290, 100%, 50%)""},{""timeMs"":21672,""colorHsl"":""hsl(210, 100%, 50%)""},{""timeMs"":22189,""colorHsl"":""hsl(290, 100%, 50%)""},{""timeMs"":22705,""colorHsl"":""hsl(210, 100%, 50%)""},{""timeMs"":23221,""colorHsl"":""hsl(290, 100%, 50%)""},{""timeMs"":23737,""colorHsl"":""hsl(210, 100%, 50%)""},{""timeMs"":24253,""colorHsl"":""hsl(290, 100%, 50%)""},{""timeMs"":24770,""colorHsl"":""hsl(210, 100%, 50%)""},{""timeMs"":25286,""colorHsl"":""hsl(290, 100%, 50%)""},{""timeMs"":25802,""colorHsl"":""hsl(210, 100%, 50%)""},{""timeMs"":26318,""colorHsl"":""hsl(290, 100%, 50%)""},{""timeMs"":26834,""colorHsl"":""hsl(210, 100%, 50%)""},{""timeMs"":27351,""colorHsl"":""hsl(290, 100%, 50%)""},{""timeMs"":27867,""colorHsl"":""hsl(210, 100%, 50%)""},{""timeMs"":28383,""colorHsl"":""hsl(290, 100%, 50%)""},{""timeMs"":28899,""colorHsl"":""hsl(210, 100%, 50%)""},{""timeMs"":29416,""colorHsl"":""hsl(290, 100%, 50%)""},{""timeMs"":29932,""colorHsl"":""hsl(210, 100%, 50%)""}]","[{""time_ms"":641},{""time_ms"":1629},{""time_ms"":2550},{""time_ms"":3521},{""time_ms"":4691},{""time_ms"":5829},{""time_ms"":6997},{""time_ms"":8011},{""time_ms"":9030},{""time_ms"":10034},{""time_ms"":10997},{""time_ms"":11951},{""time_ms"":13020},{""time_ms"":14204},{""time_ms"":15196},{""time_ms"":16278},{""time_ms"":17293},{""time_ms"":18320},{""time_ms"":19376},{""time_ms"":20320},{""time_ms"":21287},{""time_ms"":22380},{""time_ms"":23463},{""time_ms"":24505},{""time_ms"":25457},{""time_ms"":26496},{""time_ms"":27557},{""time_ms"":28638},{""time_ms"":29700}]","30000","color","color-size","30014.8","2",""
"html-keyboard-response","23","205029","0.0-21.0-0.0","male","29","100","p1.1_666149cb6a138209b157427b","November 30, 2025 at 11:30 AM","November 30, 2025 at 11:53 AM","{""browser"":""Chrome"",""version"":""142""}","null","[""<div class='jspsych-display-element' style='justify-content: center; align-items: center; min-height: 80vh; width: 100%;'><div style='display: inline-block; margin: 0 auto; color: black; font-size: 2.5vh; line-height: 3.2vh; padding: 10px 200px 10px 200px; text-align: left'><p><div style='color: red; display: inline-block;'> <h1>Track Color</h1> </div> changes and <div style='color: red; display: inline-block;'> <h1>ignore Size</h1> </div> changes.</p><p>Press Enter to start the display.</p></div></div>""]","null","attendedFeatureInstr","","","","","","","","","","","","","","","","","","","","",""
"html-keyboard-response","24","209369","0.0-21.0-1.0","male","29","100","p1.1_666149cb6a138209b157427b","November 30, 2025 at 11:30 AM","November 30, 2025 at 11:53 AM","{""browser"":""Chrome"",""version"":""142""}","4340","[""<div class='jspsych-display-element' style='justify-content: center; align-items: center; min-height: 80vh; width: 100%;'><div style='display: inline-block; margin: 0 auto; color: black; font-size: 2.5vh; line-height: 3.2vh; padding: 10px 200px 10px 200px; text-align: left'><p><div style='color: red; display: inline-block;'> <h1>Track Color</h1> </div> changes and <div style='color: red; display: inline-block;'> <h1>ignore Size</h1> </div> changes.</p><p>Press Enter to start the display.</p></div></div>""]","enter","trialStartWaiting","","","","","","","","","","","","","","","","","","","","",""
"html-keyboard-response","25","209986","0.0-22.0","male","29","100","p1.1_666149cb6a138209b157427b","November 30, 2025 at 11:30 AM","November 30, 2025 at 11:53 AM","{""browser"":""Chrome"",""version"":""142""}","null","<p style='color: white; font-size: 50px; text-align: center'>+</p>","null","ITI","","","","","","","","","","","","","","","","","","","","",""
"rhytmicFeatureChangeTask","26","240002","0.0-23.0","male","29","100","p1.1_666149cb6a138209b157427b","November 30, 2025 at 11:30 AM","November 30, 2025 at 11:53 AM","{""browser"":""Chrome"",""version"":""142""}","","","","test","","","350","400","[50,100]","1.2","[10,20]","[60,120]","hsl(210, 100%, 50%)","80","2.625","hsl(290, 100%, 50%)","[{""timeMs"":357,""rectSize"":[60,120]},{""timeMs"":724,""rectSize"":[50,100]},{""timeMs"":1090,""rectSize"":[60,120]},{""timeMs"":1456,""rectSize"":[50,100]},{""timeMs"":1823,""rectSize"":[60,120]},{""timeMs"":2189,""rectSize"":[50,100]},{""timeMs"":2555,""rectSize"":[60,120]},{""timeMs"":2922,""rectSize"":[50,100]},{""timeMs"":3288,""rectSize"":[60,120]},{""timeMs"":3654,""rectSize"":[50,100]},{""timeMs"":4021,""rectSize"":[60,120]},{""timeMs"":4387,""rectSize"":[50,100]},{""timeMs"":4754,""rectSize"":[60,120]},{""timeMs"":5120,""rectSize"":[50,100]},{""timeMs"":5486,""rectSize"":[60,120]},{""timeMs"":5853,""rectSize"":[50,100]},{""timeMs"":6219,""rectSize"":[60,120]},{""timeMs"":6585,""rectSize"":[50,100]},{""timeMs"":6952,""rectSize"":[60,120]},{""timeMs"":7318,""rectSize"":[50,100]},{""timeMs"":7684,""rectSize"":[60,120]},{""timeMs"":8051,""rectSize"":[50,100]},{""timeMs"":8417,""rectSize"":[60,120]},{""timeMs"":8784,""rectSize"":[50,100]},{""timeMs"":9150,""rectSize"":[60,120]},{""timeMs"":9516,""rectSize"":[50,100]},{""timeMs"":9882,""rectSize"":[60,120]},{""timeMs"":10249,""rectSize"":[50,100]},{""timeMs"":10615,""rectSize"":[60,120]},{""timeMs"":10982,""rectSize"":[50,100]},{""timeMs"":11348,""rectSize"":[60,120]},{""timeMs"":11714,""rectSize"":[50,100]},{""timeMs"":12081,""rectSize"":[60,120]},{""timeMs"":12447,""rectSize"":[50,100]},{""timeMs"":12813,""rectSize"":[60,120]},{""timeMs"":13180,""rectSize"":[50,100]},{""timeMs"":13546,""rectSize"":[60,120]},{""timeMs"":13912,""rectSize"":[50,100]},{""timeMs"":14279,""rectSize"":[60,120]},{""timeMs"":14645,""rectSize"":[50,100]},{""timeMs"":15012,""rectSize"":[60,120]},{""timeMs"":15378,""rectSize"":[50,100]},{""timeMs"":15744,""rectSize"":[60,120]},{""timeMs"":16111,""rectSize"":[50,100]},{""timeMs"":16477,""rectSize"":[60,120]},{""timeMs"":16843,""rectSize"":[50,100]},{""timeMs"":17210,""rectSize"":[60,120]},{""timeMs"":17576,""rectSize"":[50,100]},{""timeMs"":17942,""rectSize"":[60,120]},{""timeMs"":18309,""rectSize"":[50,100]},{""timeMs"":18675,""rectSize"":[60,120]},{""timeMs"":19041,""rectSize"":[50,100]},{""timeMs"":19408,""rectSize"":[60,120]},{""timeMs"":19774,""rectSize"":[50,100]},{""timeMs"":20140,""rectSize"":[60,120]},{""timeMs"":20507,""rectSize"":[50,100]},{""timeMs"":20873,""rectSize"":[60,120]},{""timeMs"":21239,""rectSize"":[50,100]},{""timeMs"":21606,""rectSize"":[60,120]},{""timeMs"":21972,""rectSize"":[50,100]},{""timeMs"":22342,""rectSize"":[60,120]},{""timeMs"":22705,""rectSize"":[50,100]},{""timeMs"":23071,""rectSize"":[60,120]},{""timeMs"":23438,""rectSize"":[50,100]},{""timeMs"":23804,""rectSize"":[60,120]},{""timeMs"":24170,""rectSize"":[50,100]},{""timeMs"":24537,""rectSize"":[60,120]},{""timeMs"":24903,""rectSize"":[50,100]},{""timeMs"":25269,""rectSize"":[60,120]},{""timeMs"":25636,""rectSize"":[50,100]},{""timeMs"":26002,""rectSize"":[60,120]},{""timeMs"":26368,""rectSize"":[50,100]},{""timeMs"":26735,""rectSize"":[60,120]},{""timeMs"":27101,""rectSize"":[50,100]},{""timeMs"":27467,""rectSize"":[60,120]},{""timeMs"":27834,""rectSize"":[50,100]},{""timeMs"":28200,""rectSize"":[60,120]},{""timeMs"":28566,""rectSize"":[50,100]},{""timeMs"":28933,""rectSize"":[60,120]},{""timeMs"":29299,""rectSize"":[50,100]},{""timeMs"":29665,""rectSize"":[60,120]}]","[{""timeMs"":407,""colorHsl"":""hsl(290, 100%, 50%)""},{""timeMs"":824,""colorHsl"":""hsl(210, 100%, 50%)""},{""timeMs"":1240,""colorHsl"":""hsl(290, 100%, 50%)""},{""timeMs"":1656,""colorHsl"":""hsl(210, 100%, 50%)""},{""timeMs"":2073,""colorHsl"":""hsl(290, 100%, 50%)""},{""timeMs"":2489,""colorHsl"":""hsl(210, 100%, 50%)""},{""timeMs"":2905,""colorHsl"":""hsl(290, 100%, 50%)""},{""timeMs"":3321,""colorHsl"":""hsl(210, 100%, 50%)""},{""timeMs"":3738,""colorHsl"":""hsl(290, 100%, 50%)""},{""timeMs"":4154,""colorHsl"":""hsl(210, 100%, 50%)""},{""timeMs"":4570,""colorHsl"":""hsl(290, 100%, 50%)""},{""timeMs"":4987,""colorHsl"":""hsl(210, 100%, 50%)""},{""timeMs"":5403,""colorHsl"":""hsl(290, 100%, 50%)""},{""timeMs"":5819,""colorHsl"":""hsl(210, 100%, 50%)""},{""timeMs"":6236,""colorHsl"":""hsl(290, 100%, 50%)""},{""timeMs"":6652,""colorHsl"":""hsl(210, 100%, 50%)""},{""timeMs"":7068,""colorHsl"":""hsl(290, 100%, 50%)""},{""timeMs"":7485,""colorHsl"":""hsl(210, 100%, 50%)""},{""timeMs"":7901,""colorHsl"":""hsl(290, 100%, 50%)""},{""timeMs"":8317,""colorHsl"":""hsl(210, 100%, 50%)""},{""timeMs"":8734,""colorHsl"":""hsl(290, 100%, 50%)""},{""timeMs"":9150,""colorHsl"":""hsl(210, 100%, 50%)""},{""timeMs"":9566,""colorHsl"":""hsl(290, 100%, 50%)""},{""timeMs"":9982,""colorHsl"":""hsl(210, 100%, 50%)""},{""timeMs"":10399,""colorHsl"":""hsl(290, 100%, 50%)""},{""timeMs"":10815,""colorHsl"":""hsl(210, 100%, 50%)""},{""timeMs"":11231,""colorHsl"":""hsl(290, 100%, 50%)""},{""timeMs"":11648,""colorHsl"":""hsl(210, 100%, 50%)""},{""timeMs"":12064,""colorHsl"":""hsl(290, 100%, 50%)""},{""timeMs"":12480,""colorHsl"":""hsl(210, 100%, 50%)""},{""timeMs"":12896,""colorHsl"":""hsl(290, 100%, 50%)""},{""timeMs"":13313,""colorHsl"":""hsl(210, 100%, 50%)""},{""timeMs"":13729,""colorHsl"":""hsl(290, 100%, 50%)""},{""timeMs"":14146,""colorHsl"":""hsl(210, 100%, 50%)""},{""timeMs"":14562,""colorHsl"":""hsl(290, 100%, 50%)""},{""timeMs"":14978,""colorHsl"":""hsl(210, 100%, 50%)""},{""timeMs"":15394,""colorHsl"":""hsl(290, 100%, 50%)""},{""timeMs"":15811,""colorHsl"":""hsl(210, 100%, 50%)""},{""timeMs"":16227,""colorHsl"":""hsl(290, 100%, 50%)""},{""timeMs"":16643,""colorHsl"":""hsl(210, 100%, 50%)""},{""timeMs"":17060,""colorHsl"":""hsl(290, 100%, 50%)""},{""timeMs"":17476,""colorHsl"":""hsl(210, 100%, 50%)""},{""timeMs"":17892,""colorHsl"":""hsl(290, 100%, 50%)""},{""timeMs"":18309,""colorHsl"":""hsl(210, 100%, 50%)""},{""timeMs"":18725,""colorHsl"":""hsl(290, 100%, 50%)""},{""timeMs"":19141,""colorHsl"":""hsl(210, 100%, 50%)""},{""timeMs"":19558,""colorHsl"":""hsl(290, 100%, 50%)""},{""timeMs"":19974,""colorHsl"":""hsl(210, 100%, 50%)""},{""timeMs"":20390,""colorHsl"":""hsl(290, 100%, 50%)""},{""timeMs"":20807,""colorHsl"":""hsl(210, 100%, 50%)""},{""timeMs"":21223,""colorHsl"":""hsl(290, 100%, 50%)""},{""timeMs"":21639,""colorHsl"":""hsl(210, 100%, 50%)""},{""timeMs"":22055,""colorHsl"":""hsl(290, 100%, 50%)""},{""timeMs"":22472,""colorHsl"":""hsl(210, 100%, 50%)""},{""timeMs"":22888,""colorHsl"":""hsl(290, 100%, 50%)""},{""timeMs"":23304,""colorHsl"":""hsl(210, 100%, 50%)""},{""timeMs"":23721,""colorHsl"":""hsl(290, 100%, 50%)""},{""timeMs"":24137,""colorHsl"":""hsl(210, 100%, 50%)""},{""timeMs"":24553,""colorHsl"":""hsl(290, 100%, 50%)""},{""timeMs"":24970,""colorHsl"":""hsl(210, 100%, 50%)""},{""timeMs"":25386,""colorHsl"":""hsl(290, 100%, 50%)""},{""timeMs"":25802,""colorHsl"":""hsl(210, 100%, 50%)""},{""timeMs"":26218,""colorHsl"":""hsl(290, 100%, 50%)""},{""timeMs"":26635,""colorHsl"":""hsl(210, 100%, 50%)""},{""timeMs"":27051,""colorHsl"":""hsl(290, 100%, 50%)""},{""timeMs"":27467,""colorHsl"":""hsl(210, 100%, 50%)""},{""timeMs"":27884,""colorHsl"":""hsl(290, 100%, 50%)""},{""timeMs"":28300,""colorHsl"":""hsl(210, 100%, 50%)""},{""timeMs"":28716,""colorHsl"":""hsl(290, 100%, 50%)""},{""timeMs"":29133,""colorHsl"":""hsl(210, 100%, 50%)""},{""timeMs"":29549,""colorHsl"":""hsl(290, 100%, 50%)""},{""timeMs"":29965,""colorHsl"":""hsl(210, 100%, 50%)""}]","[{""time_ms"":605},{""time_ms"":1390},{""time_ms"":2173},{""time_ms"":3052},{""time_ms"":3920},{""time_ms"":4817},{""time_ms"":5698},{""time_ms"":6533},{""time_ms"":7326},{""time_ms"":8127},{""time_ms"":8949},{""time_ms"":9852},{""time_ms"":10663},{""time_ms"":11557},{""time_ms"":12345},{""time_ms"":13203},{""time_ms"":14014},{""time_ms"":14846},{""time_ms"":15700},{""time_ms"":16506},{""time_ms"":17325},{""time_ms"":18113},{""time_ms"":18958},{""time_ms"":19833},{""time_ms"":20674},{""time_ms"":21531},{""time_ms"":22319},{""time_ms"":23049},{""time_ms"":23993},{""time_ms"":24816},{""time_ms"":25573},{""time_ms"":26431},{""time_ms"":27269},{""time_ms"":28112},{""time_ms"":28853},{""time_ms"":29576}]","30000","color","color-size","30015.1","3",""
"html-keyboard-response","27","240402","0.0-24.0-0.0","male","29","100","p1.1_666149cb6a138209b157427b","November 30, 2025 at 11:30 AM","November 30, 2025 at 11:53 AM","{""browser"":""Chrome"",""version"":""142""}","null","[""<div class='jspsych-display-element' style='justify-content: center; align-items: center; min-height: 80vh; width: 100%;'><div style='display: inline-block; margin: 0 auto; color: black; font-size: 2.5vh; line-height: 3.2vh; padding: 10px 200px 10px 200px; text-align: left'><p><div style='color: red; display: inline-block;'> <h1>Track Color</h1> </div> changes and <div style='color: red; display: inline-block;'> <h1>ignore Size</h1> </div> changes.</p><p>Press Enter to start the display.</p></div></div>""]","null","attendedFeatureInstr","","","","","","","","","","","","","","","","","","","","",""
"html-keyboard-response","28","245665","0.0-24.0-1.0","male","29","100","p1.1_666149cb6a138209b157427b","November 30, 2025 at 11:30 AM","November 30, 2025 at 11:53 AM","{""browser"":""Chrome"",""version"":""142""}","5262","[""<div class='jspsych-display-element' style='justify-content: center; align-items: center; min-height: 80vh; width: 100%;'><div style='display: inline-block; margin: 0 auto; color: black; font-size: 2.5vh; line-height: 3.2vh; padding: 10px 200px 10px 200px; text-align: left'><p><div style='color: red; display: inline-block;'> <h1>Track Color</h1> </div> changes and <div style='color: red; display: inline-block;'> <h1>ignore Size</h1> </div> changes.</p><p>Press Enter to start the display.</p></div></div>""]","enter","trialStartWaiting","","","","","","","","","","","","","","","","","","","","",""
"html-keyboard-response","29","246598","0.0-25.0","male","29","100","p1.1_666149cb6a138209b157427b","November 30, 2025 at 11:30 AM","November 30, 2025 at 11:53 AM","{""browser"":""Chrome"",""version"":""142""}","null","<p style='color: white; font-size: 50px; text-align: center'>+</p>","null","ITI","","","","","","","","","","","","","","","","","","","","",""
"rhytmicFeatureChangeTask","30","276614","0.0-26.0","male","29","100","p1.1_666149cb6a138209b157427b","November 30, 2025 at 11:30 AM","November 30, 2025 at 11:53 AM","{""browser"":""Chrome"",""version"":""142""}","","","","test","","","500","450","[50,100]","1.2","[10,20]","[60,120]","hsl(210, 100%, 50%)","80","2.625","hsl(290, 100%, 50%)","[{""timeMs"":507,""rectSize"":[60,120]},{""timeMs"":1023,""rectSize"":[50,100]},{""timeMs"":1540,""rectSize"":[60,120]},{""timeMs"":2056,""rectSize"":[50,100]},{""timeMs"":2572,""rectSize"":[60,120]},{""timeMs"":3088,""rectSize"":[50,100]},{""timeMs"":3605,""rectSize"":[60,120]},{""timeMs"":4121,""rectSize"":[50,100]},{""timeMs"":4637,""rectSize"":[60,120]},{""timeMs"":5153,""rectSize"":[50,100]},{""timeMs"":5669,""rectSize"":[60,120]},{""timeMs"":6186,""rectSize"":[50,100]},{""timeMs"":6702,""rectSize"":[60,120]},{""timeMs"":7218,""rectSize"":[50,100]},{""timeMs"":7734,""rectSize"":[60,120]},{""timeMs"":8251,""rectSize"":[50,100]},{""timeMs"":8767,""rectSize"":[60,120]},{""timeMs"":9283,""rectSize"":[50,100]},{""timeMs"":9799,""rectSize"":[60,120]},{""timeMs"":10315,""rectSize"":[50,100]},{""timeMs"":10832,""rectSize"":[60,120]},{""timeMs"":11348,""rectSize"":[50,100]},{""timeMs"":11864,""rectSize"":[60,120]},{""timeMs"":12380,""rectSize"":[50,100]},{""timeMs"":12897,""rectSize"":[60,120]},{""timeMs"":13413,""rectSize"":[50,100]},{""timeMs"":13929,""rectSize"":[60,120]},{""timeMs"":14445,""rectSize"":[50,100]},{""timeMs"":14962,""rectSize"":[60,120]},{""timeMs"":15478,""rectSize"":[50,100]},{""timeMs"":15994,""rectSize"":[60,120]},{""timeMs"":16510,""rectSize"":[50,100]},{""timeMs"":17026,""rectSize"":[60,120]},{""timeMs"":17543,""rectSize"":[50,100]},{""timeMs"":18059,""rectSize"":[60,120]},{""timeMs"":18575,""rectSize"":[50,100]},{""timeMs"":19091,""rectSize"":[60,120]},{""timeMs"":19608,""rectSize"":[50,100]},{""timeMs"":20124,""rectSize"":[60,120]},{""timeMs"":20640,""rectSize"":[50,100]},{""timeMs"":21156,""rectSize"":[60,120]},{""timeMs"":21673,""rectSize"":[50,100]},{""timeMs"":22189,""rectSize"":[60,120]},{""timeMs"":22705,""rectSize"":[50,100]},{""timeMs"":23221,""rectSize"":[60,120]},{""timeMs"":23737,""rectSize"":[50,100]},{""timeMs"":24254,""rectSize"":[60,120]},{""timeMs"":24770,""rectSize"":[50,100]},{""timeMs"":25286,""rectSize"":[60,120]},{""timeMs"":25802,""rectSize"":[50,100]},{""timeMs"":26318,""rectSize"":[60,120]},{""timeMs"":26835,""rectSize"":[50,100]},{""timeMs"":27351,""rectSize"":[60,120]},{""timeMs"":27867,""rectSize"":[50,100]},{""timeMs"":28383,""rectSize"":[60,120]},{""timeMs"":28900,""rectSize"":[50,100]},{""timeMs"":29416,""rectSize"":[60,120]},{""timeMs"":29932,""rectSize"":[50,100]}]","[{""timeMs"":457,""colorHsl"":""hsl(290, 100%, 50%)""},{""timeMs"":924,""colorHsl"":""hsl(210, 100%, 50%)""},{""timeMs"":1390,""colorHsl"":""hsl(290, 100%, 50%)""},{""timeMs"":1856,""colorHsl"":""hsl(210, 100%, 50%)""},{""timeMs"":2322,""colorHsl"":""hsl(290, 100%, 50%)""},{""timeMs"":2789,""colorHsl"":""hsl(210, 100%, 50%)""},{""timeMs"":3255,""colorHsl"":""hsl(290, 100%, 50%)""},{""timeMs"":3721,""colorHsl"":""hsl(210, 100%, 50%)""},{""timeMs"":4187,""colorHsl"":""hsl(290, 100%, 50%)""},{""timeMs"":4654,""colorHsl"":""hsl(210, 100%, 50%)""},{""timeMs"":5120,""colorHsl"":""hsl(290, 100%, 50%)""},{""timeMs"":5586,""colorHsl"":""hsl(210, 100%, 50%)""},{""timeMs"":6052,""colorHsl"":""hsl(290, 100%, 50%)""},{""timeMs"":6519,""colorHsl"":""hsl(210, 100%, 50%)""},{""timeMs"":6985,""colorHsl"":""hsl(290, 100%, 50%)""},{""timeMs"":7451,""colorHsl"":""hsl(210, 100%, 50%)""},{""timeMs"":7917,""colorHsl"":""hsl(290, 100%, 50%)""},{""timeMs"":8384,""colorHsl"":""hsl(210, 100%, 50%)""},{""timeMs"":8850,""colorHsl"":""hsl(290, 100%, 50%)""},{""timeMs"":9316,""colorHsl"":""hsl(210, 100%, 50%)""},{""timeMs"":9783,""colorHsl"":""hsl(290, 100%, 50%)""},{""timeMs"":10249,""colorHsl"":""hsl(210, 100%, 50%)""},{""timeMs"":10715,""colorHsl"":""hsl(290, 100%, 50%)""},{""timeMs"":11181,""colorHsl"":""hsl(210, 100%, 50%)""},{""timeMs"":11648,""colorHsl"":""hsl(290, 100%, 50%)""},{""timeMs"":12114,""colorHsl"":""hsl(210, 100%, 50%)""},{""timeMs"":12580,""colorHsl"":""hsl(290, 100%, 50%)""},{""timeMs"":13046,""colorHsl"":""hsl(210, 100%, 50%)""},{""timeMs"":13513,""colorHsl"":""hsl(290, 100%, 50%)""},{""timeMs"":13979,""colorHsl"":""hsl(210, 100%, 50%)""},{""timeMs"":14445,""colorHsl"":""hsl(290, 100%, 50%)""},{""timeMs"":14912,""colorHsl"":""hsl(210, 100%, 50%)""},{""timeMs"":15378,""colorHsl"":""hsl(290, 100%, 50%)""},{""timeMs"":15844,""colorHsl"":""hsl(210, 100%, 50%)""},{""timeMs"":16310,""colorHsl"":""hsl(290, 100%, 50%)""},{""timeMs"":16777,""colorHsl"":""hsl(210, 100%, 50%)""},{""timeMs"":17243,""colorHsl"":""hsl(290, 100%, 50%)""},{""timeMs"":17709,""colorHsl"":""hsl(210, 100%, 50%)""},{""timeMs"":18175,""colorHsl"":""hsl(290, 100%, 50%)""},{""timeMs"":18642,""colorHsl"":""hsl(210, 100%, 50%)""},{""timeMs"":19108,""colorHsl"":""hsl(290, 100%, 50%)""},{""timeMs"":19574,""colorHsl"":""hsl(210, 100%, 50%)""},{""timeMs"":20040,""colorHsl"":""hsl(290, 100%, 50%)""},{""timeMs"":20507,""colorHsl"":""hsl(210, 100%, 50%)""},{""timeMs"":20973,""colorHsl"":""hsl(290, 100%, 50%)""},{""timeMs"":21440,""colorHsl"":""hsl(210, 100%, 50%)""},{""timeMs"":21906,""colorHsl"":""hsl(290, 100%, 50%)""},{""timeMs"":22372,""colorHsl"":""hsl(210, 100%, 50%)""},{""timeMs"":22838,""colorHsl"":""hsl(290, 100%, 50%)""},{""timeMs"":23304,""colorHsl"":""hsl(210, 100%, 50%)""},{""timeMs"":23771,""colorHsl"":""hsl(290, 100%, 50%)""},{""timeMs"":24237,""colorHsl"":""hsl(210, 100%, 50%)""},{""timeMs"":24703,""colorHsl"":""hsl(290, 100%, 50%)""},{""timeMs"":25169,""colorHsl"":""hsl(210, 100%, 50%)""},{""timeMs"":25636,""colorHsl"":""hsl(290, 100%, 50%)""},{""timeMs"":26102,""colorHsl"":""hsl(210, 100%, 50%)""},{""timeMs"":26552,""colorHsl"":""hsl(290, 100%, 50%)""},{""timeMs"":27018,""colorHsl"":""hsl(210, 100%, 50%)""},{""timeMs"":27484,""colorHsl"":""hsl(290, 100%, 50%)""},{""timeMs"":27950,""colorHsl"":""hsl(210, 100%, 50%)""},{""timeMs"":28417,""colorHsl"":""hsl(290, 100%, 50%)""},{""timeMs"":28883,""colorHsl"":""hsl(210, 100%, 50%)""},{""timeMs"":29349,""colorHsl"":""hsl(290, 100%, 50%)""},{""timeMs"":29815,""colorHsl"":""hsl(210, 100%, 50%)""}]","[{""time_ms"":704},{""time_ms"":1622},{""time_ms"":2532},{""time_ms"":3430},{""time_ms"":4387},{""time_ms"":5324},{""time_ms"":6268},{""time_ms"":7179},{""time_ms"":8053},{""time_ms"":8956},{""time_ms"":9834},{""time_ms"":10905},{""time_ms"":11880},{""time_ms"":12819},{""time_ms"":13741},{""time_ms"":14707},{""time_ms"":15627},{""time_ms"":16449},{""time_ms"":17355},{""time_ms"":18310},{""time_ms"":19254},{""time_ms"":20222},{""time_ms"":21180},{""time_ms"":22043},{""time_ms"":22936},{""time_ms"":23888},{""time_ms"":24793},{""time_ms"":25637},{""time_ms"":26552},{""time_ms"":27433},{""time_ms"":28367},{""time_ms"":29228}]","30000","color","color-size","30015.2","4",""
"html-keyboard-response","31","277014","0.0-27.0-0.0","male","29","100","p1.1_666149cb6a138209b157427b","November 30, 2025 at 11:30 AM","November 30, 2025 at 11:53 AM","{""browser"":""Chrome"",""version"":""142""}","null","[""<div class='jspsych-display-element' style='justify-content: center; align-items: center; min-height: 80vh; width: 100%;'><div style='display: inline-block; margin: 0 auto; color: black; font-size: 2.5vh; line-height: 3.2vh; padding: 10px 200px 10px 200px; text-align: left'><p><div style='color: red; display: inline-block;'> <h1>Track Size</h1> </div> changes and <div style='color: red; display: inline-block;'> <h1>ignore Color</h1> </div> changes.</p><p>Press Enter to start the display.</p></div></div>""]","null","attendedFeatureInstr","","","","","","","","","","","","","","","","","","","","",""
"html-keyboard-response","32","281285","0.0-27.0-1.0","male","29","100","p1.1_666149cb6a138209b157427b","November 30, 2025 at 11:30 AM","November 30, 2025 at 11:53 AM","{""browser"":""Chrome"",""version"":""142""}","4270","[""<div class='jspsych-display-element' style='justify-content: center; align-items: center; min-height: 80vh; width: 100%;'><div style='display: inline-block; margin: 0 auto; color: black; font-size: 2.5vh; line-height: 3.2vh; padding: 10px 200px 10px 200px; text-align: left'><p><div style='color: red; display: inline-block;'> <h1>Track Size</h1> </div> changes and <div style='color: red; display: inline-block;'> <h1>ignore Color</h1> </div> changes.</p><p>Press Enter to start the display.</p></div></div>""]","enter","trialStartWaiting","","","","","","","","","","","","","","","","","","","","",""
"html-keyboard-response","33","282113","0.0-28.0","male","29","100","p1.1_666149cb6a138209b157427b","November 30, 2025 at 11:30 AM","November 30, 2025 at 11:53 AM","{""browser"":""Chrome"",""version"":""142""}","null","<p style='color: white; font-size: 50px; text-align: center'>+</p>","null","ITI","","","","","","","","","","","","","","","","","","","","",""
"rhytmicFeatureChangeTask","34","312129","0.0-29.0","male","29","100","p1.1_666149cb6a138209b157427b","November 30, 2025 at 11:30 AM","November 30, 2025 at 11:53 AM","{""browser"":""Chrome"",""version"":""142""}","","","","test","","","350","400","[50,100]","1.2","[10,20]","[60,120]","hsl(210, 100%, 50%)","80","2.625","hsl(290, 100%, 50%)","[{""timeMs"":357,""rectSize"":[60,120]},{""timeMs"":724,""rectSize"":[50,100]},{""timeMs"":1090,""rectSize"":[60,120]},{""timeMs"":1456,""rectSize"":[50,100]},{""timeMs"":1823,""rectSize"":[60,120]},{""timeMs"":2189,""rectSize"":[50,100]},{""timeMs"":2555,""rectSize"":[60,120]},{""timeMs"":2922,""rectSize"":[50,100]},{""timeMs"":3288,""rectSize"":[60,120]},{""timeMs"":3654,""rectSize"":[50,100]},{""timeMs"":4021,""rectSize"":[60,120]},{""timeMs"":4387,""rectSize"":[50,100]},{""timeMs"":4753,""rectSize"":[60,120]},{""timeMs"":5120,""rectSize"":[50,100]},{""timeMs"":5486,""rectSize"":[60,120]},{""timeMs"":5852,""rectSize"":[50,100]},{""timeMs"":6219,""rectSize"":[60,120]},{""timeMs"":6585,""rectSize"":[50,100]},{""timeMs"":6952,""rectSize"":[60,120]},{""timeMs"":7318,""rectSize"":[50,100]},{""timeMs"":7684,""rectSize"":[60,120]},{""timeMs"":8051,""rectSize"":[50,100]},{""timeMs"":8417,""rectSize"":[60,120]},{""timeMs"":8783,""rectSize"":[50,100]},{""timeMs"":9150,""rectSize"":[60,120]},{""timeMs"":9516,""rectSize"":[50,100]},{""timeMs"":9882,""rectSize"":[60,120]},{""timeMs"":10249,""rectSize"":[50,100]},{""timeMs"":10615,""rectSize"":[60,120]},{""timeMs"":10981,""rectSize"":[50,100]},{""timeMs"":11348,""rectSize"":[60,120]},{""timeMs"":11714,""rectSize"":[50,100]},{""timeMs"":12080,""rectSize"":[60,120]},{""timeMs"":12447,""rectSize"":[50,100]},{""timeMs"":12813,""rectSize"":[60,120]},{""timeMs"":13180,""rectSize"":[50,100]},{""timeMs"":13546,""rectSize"":[60,120]},{""timeMs"":13912,""rectSize"":[50,100]},{""timeMs"":14279,""rectSize"":[60,120]},{""timeMs"":14645,""rectSize"":[50,100]},{""timeMs"":15011,""rectSize"":[60,120]},{""timeMs"":15378,""rectSize"":[50,100]},{""timeMs"":15744,""rectSize"":[60,120]},{""timeMs"":16110,""rectSize"":[50,100]},{""timeMs"":16477,""rectSize"":[60,120]},{""timeMs"":16843,""rectSize"":[50,100]},{""timeMs"":17209,""rectSize"":[60,120]},{""timeMs"":17576,""rectSize"":[50,100]},{""timeMs"":17942,""rectSize"":[60,120]},{""timeMs"":18309,""rectSize"":[50,100]},{""timeMs"":18675,""rectSize"":[60,120]},{""timeMs"":19041,""rectSize"":[50,100]},{""timeMs"":19408,""rectSize"":[60,120]},{""timeMs"":19774,""rectSize"":[50,100]},{""timeMs"":20140,""rectSize"":[60,120]},{""timeMs"":20507,""rectSize"":[50,100]},{""timeMs"":20873,""rectSize"":[60,120]},{""timeMs"":21239,""rectSize"":[50,100]},{""timeMs"":21590,""rectSize"":[60,120]},{""timeMs"":21955,""rectSize"":[50,100]},{""timeMs"":22322,""rectSize"":[60,120]},{""timeMs"":22688,""rectSize"":[50,100]},{""timeMs"":23054,""rectSize"":[60,120]},{""timeMs"":23421,""rectSize"":[50,100]},{""timeMs"":23787,""rectSize"":[60,120]},{""timeMs"":24153,""rectSize"":[50,100]},{""timeMs"":24520,""rectSize"":[60,120]},{""timeMs"":24886,""rectSize"":[50,100]},{""timeMs"":25253,""rectSize"":[60,120]},{""timeMs"":25619,""rectSize"":[50,100]},{""timeMs"":25985,""rectSize"":[60,120]},{""timeMs"":26351,""rectSize"":[50,100]},{""timeMs"":26718,""rectSize"":[60,120]},{""timeMs"":27084,""rectSize"":[50,100]},{""timeMs"":27451,""rectSize"":[60,120]},{""timeMs"":27817,""rectSize"":[50,100]},{""timeMs"":28183,""rectSize"":[60,120]},{""timeMs"":28550,""rectSize"":[50,100]},{""timeMs"":28916,""rectSize"":[60,120]},{""timeMs"":29282,""rectSize"":[50,100]},{""timeMs"":29649,""rectSize"":[60,120]}]","[{""timeMs"":407,""colorHsl"":""hsl(290, 100%, 50%)""},{""timeMs"":823,""colorHsl"":""hsl(210, 100%, 50%)""},{""timeMs"":1240,""colorHsl"":""hsl(290, 100%, 50%)""},{""timeMs"":1656,""colorHsl"":""hsl(210, 100%, 50%)""},{""timeMs"":2072,""colorHsl"":""hsl(290, 100%, 50%)""},{""timeMs"":2489,""colorHsl"":""hsl(210, 100%, 50%)""},{""timeMs"":2905,""colorHsl"":""hsl(290, 100%, 50%)""},{""timeMs"":3321,""colorHsl"":""hsl(210, 100%, 50%)""},{""timeMs"":3738,""colorHsl"":""hsl(290, 100%, 50%)""},{""timeMs"":4154,""colorHsl"":""hsl(210, 100%, 50%)""},{""timeMs"":4570,""colorHsl"":""hsl(290, 100%, 50%)""},{""timeMs"":4987,""colorHsl"":""hsl(210, 100%, 50%)""},{""timeMs"":5403,""colorHsl"":""hsl(290, 100%, 50%)""},{""timeMs"":5819,""colorHsl"":""hsl(210, 100%, 50%)""},{""timeMs"":6236,""colorHsl"":""hsl(290, 100%, 50%)""},{""timeMs"":6652,""colorHsl"":""hsl(210, 100%, 50%)""},{""timeMs"":7068,""colorHsl"":""hsl(290, 100%, 50%)""},{""timeMs"":7484,""colorHsl"":""hsl(210, 100%, 50%)""},{""timeMs"":7901,""colorHsl"":""hsl(290, 100%, 50%)""},{""timeMs"":8317,""colorHsl"":""hsl(210, 100%, 50%)""},{""timeMs"":8733,""colorHsl"":""hsl(290, 100%, 50%)""},{""timeMs"":9150,""colorHsl"":""hsl(210, 100%, 50%)""},{""timeMs"":9566,""colorHsl"":""hsl(290, 100%, 50%)""},{""timeMs"":9982,""colorHsl"":""hsl(210, 100%, 50%)""},{""timeMs"":10399,""colorHsl"":""hsl(290, 100%, 50%)""},{""timeMs"":10815,""colorHsl"":""hsl(210, 100%, 50%)""},{""timeMs"":11231,""colorHsl"":""hsl(290, 100%, 50%)""},{""timeMs"":11647,""colorHsl"":""hsl(210, 100%, 50%)""},{""timeMs"":12064,""colorHsl"":""hsl(290, 100%, 50%)""},{""timeMs"":12480,""colorHsl"":""hsl(210, 100%, 50%)""},{""timeMs"":12896,""colorHsl"":""hsl(290, 100%, 50%)""},{""timeMs"":13313,""colorHsl"":""hsl(210, 100%, 50%)""},{""timeMs"":13729,""colorHsl"":""hsl(290, 100%, 50%)""},{""timeMs"":14145,""colorHsl"":""hsl(210, 100%, 50%)""},{""timeMs"":14562,""colorHsl"":""hsl(290, 100%, 50%)""},{""timeMs"":14978,""colorHsl"":""hsl(210, 100%, 50%)""},{""timeMs"":15394,""colorHsl"":""hsl(290, 100%, 50%)""},{""timeMs"":15811,""colorHsl"":""hsl(210, 100%, 50%)""},{""timeMs"":16227,""colorHsl"":""hsl(290, 100%, 50%)""},{""timeMs"":16643,""colorHsl"":""hsl(210, 100%, 50%)""},{""timeMs"":17060,""colorHsl"":""hsl(290, 100%, 50%)""},{""timeMs"":17476,""colorHsl"":""hsl(210, 100%, 50%)""},{""timeMs"":17892,""colorHsl"":""hsl(290, 100%, 50%)""},{""timeMs"":18309,""colorHsl"":""hsl(210, 100%, 50%)""},{""timeMs"":18725,""colorHsl"":""hsl(290, 100%, 50%)""},{""timeMs"":19141,""colorHsl"":""hsl(210, 100%, 50%)""},{""timeMs"":19557,""colorHsl"":""hsl(290, 100%, 50%)""},{""timeMs"":19974,""colorHsl"":""hsl(210, 100%, 50%)""},{""timeMs"":20390,""colorHsl"":""hsl(290, 100%, 50%)""},{""timeMs"":20806,""colorHsl"":""hsl(210, 100%, 50%)""},{""timeMs"":21223,""colorHsl"":""hsl(290, 100%, 50%)""},{""timeMs"":21639,""colorHsl"":""hsl(210, 100%, 50%)""},{""timeMs"":22055,""colorHsl"":""hsl(290, 100%, 50%)""},{""timeMs"":22472,""colorHsl"":""hsl(210, 100%, 50%)""},{""timeMs"":22888,""colorHsl"":""hsl(290, 100%, 50%)""},{""timeMs"":23304,""colorHsl"":""hsl(210, 100%, 50%)""},{""timeMs"":23721,""colorHsl"":""hsl(290, 100%, 50%)""},{""timeMs"":24137,""colorHsl"":""hsl(210, 100%, 50%)""},{""timeMs"":24553,""colorHsl"":""hsl(290, 100%, 50%)""},{""timeMs"":24969,""colorHsl"":""hsl(210, 100%, 50%)""},{""timeMs"":25386,""colorHsl"":""hsl(290, 100%, 50%)""},{""timeMs"":25802,""colorHsl"":""hsl(210, 100%, 50%)""},{""timeMs"":26218,""colorHsl"":""hsl(290, 100%, 50%)""},{""timeMs"":26635,""colorHsl"":""hsl(210, 100%, 50%)""},{""timeMs"":27051,""colorHsl"":""hsl(290, 100%, 50%)""},{""timeMs"":27467,""colorHsl"":""hsl(210, 100%, 50%)""},{""timeMs"":27884,""colorHsl"":""hsl(290, 100%, 50%)""},{""timeMs"":28300,""colorHsl"":""hsl(210, 100%, 50%)""},{""timeMs"":28716,""colorHsl"":""hsl(290, 100%, 50%)""},{""timeMs"":29133,""colorHsl"":""hsl(210, 100%, 50%)""},{""timeMs"":29549,""colorHsl"":""hsl(290, 100%, 50%)""},{""timeMs"":29965,""colorHsl"":""hsl(210, 100%, 50%)""}]","[{""time_ms"":612},{""time_ms"":1343},{""time_ms"":2057},{""time_ms"":2796},{""time_ms"":3553},{""time_ms"":4262},{""time_ms"":4996},{""time_ms"":5722},{""time_ms"":6449},{""time_ms"":7172},{""time_ms"":7917},{""time_ms"":8659},{""time_ms"":9387},{""time_ms"":10112},{""time_ms"":10844},{""time_ms"":11540},{""time_ms"":12276},{""time_ms"":13017},{""time_ms"":13778},{""time_ms"":14502},{""time_ms"":15222},{""time_ms"":15983},{""time_ms"":16730},{""time_ms"":17430},{""time_ms"":18130},{""time_ms"":18788},{""time_ms"":19531},{""time_ms"":20336},{""time_ms"":21054},{""time_ms"":21772},{""time_ms"":22522},{""time_ms"":23253},{""time_ms"":23997},{""time_ms"":24774},{""time_ms"":25509},{""time_ms"":26241},{""time_ms"":26947},{""time_ms"":27675},{""time_ms"":28401},{""time_ms"":29172},{""time_ms"":29861}]","30000","size","color-size","30015.3","5",""
"html-keyboard-response","35","312530","0.0-30.0-0.0","male","29","100","p1.1_666149cb6a138209b157427b","November 30, 2025 at 11:30 AM","November 30, 2025 at 11:53 AM","{""browser"":""Chrome"",""version"":""142""}","null","[""<div class='jspsych-display-element' style='justify-content: center; align-items: center; min-height: 80vh; width: 100%;'><div style='display: inline-block; margin: 0 auto; color: black; font-size: 2.5vh; line-height: 3.2vh; padding: 10px 200px 10px 200px; text-align: left'><p><div style='color: red; display: inline-block;'> <h1>Track Size</h1> </div> changes and <div style='color: red; display: inline-block;'> <h1>ignore Color</h1> </div> changes.</p><p>Press Enter to start the display.</p></div></div>""]","null","attendedFeatureInstr","","","","","","","","","","","","","","","","","","","","",""
"html-keyboard-response","36","318276","0.0-30.0-1.0","male","29","100","p1.1_666149cb6a138209b157427b","November 30, 2025 at 11:30 AM","November 30, 2025 at 11:53 AM","{""browser"":""Chrome"",""version"":""142""}","5746","[""<div class='jspsych-display-element' style='justify-content: center; align-items: center; min-height: 80vh; width: 100%;'><div style='display: inline-block; margin: 0 auto; color: black; font-size: 2.5vh; line-height: 3.2vh; padding: 10px 200px 10px 200px; text-align: left'><p><div style='color: red; display: inline-block;'> <h1>Track Size</h1> </div> changes and <div style='color: red; display: inline-block;'> <h1>ignore Color</h1> </div> changes.</p><p>Press Enter to start the display.</p></div></div>""]","enter","trialStartWaiting","","","","","","","","","","","","","","","","","","","","",""
"html-keyboard-response","37","319074","0.0-31.0","male","29","100","p1.1_666149cb6a138209b157427b","November 30, 2025 at 11:30 AM","November 30, 2025 at 11:53 AM","{""browser"":""Chrome"",""version"":""142""}","null","<p style='color: white; font-size: 50px; text-align: center'>+</p>","null","ITI","","","","","","","","","","","","","","","","","","","","",""
"rhytmicFeatureChangeTask","38","349078","0.0-32.0","male","29","100","p1.1_666149cb6a138209b157427b","November 30, 2025 at 11:30 AM","November 30, 2025 at 11:53 AM","{""browser"":""Chrome"",""version"":""142""}","","","","test","","","500","450","[50,100]","1.2","[10,20]","[60,120]","hsl(210, 100%, 50%)","80","2.625","hsl(290, 100%, 50%)","[{""timeMs"":511,""rectSize"":[60,120]},{""timeMs"":1027,""rectSize"":[50,100]},{""timeMs"":1543,""rectSize"":[60,120]},{""timeMs"":2060,""rectSize"":[50,100]},{""timeMs"":2576,""rectSize"":[60,120]},{""timeMs"":3092,""rectSize"":[50,100]},{""timeMs"":3608,""rectSize"":[60,120]},{""timeMs"":4124,""rectSize"":[50,100]},{""timeMs"":4641,""rectSize"":[60,120]},{""timeMs"":5157,""rectSize"":[50,100]},{""timeMs"":5673,""rectSize"":[60,120]},{""timeMs"":6189,""rectSize"":[50,100]},{""timeMs"":6706,""rectSize"":[60,120]},{""timeMs"":7222,""rectSize"":[50,100]},{""timeMs"":7738,""rectSize"":[60,120]},{""timeMs"":8254,""rectSize"":[50,100]},{""timeMs"":8771,""rectSize"":[60,120]},{""timeMs"":9287,""rectSize"":[50,100]},{""timeMs"":9803,""rectSize"":[60,120]},{""timeMs"":10319,""rectSize"":[50,100]},{""timeMs"":10835,""rectSize"":[60,120]},{""timeMs"":11352,""rectSize"":[50,100]},{""timeMs"":11868,""rectSize"":[60,120]},{""timeMs"":12384,""rectSize"":[50,100]},{""timeMs"":12901,""rectSize"":[60,120]},{""timeMs"":13417,""rectSize"":[50,100]},{""timeMs"":13933,""rectSize"":[60,120]},{""timeMs"":14449,""rectSize"":[50,100]},{""timeMs"":14965,""rectSize"":[60,120]},{""timeMs"":15481,""rectSize"":[50,100]},{""timeMs"":15998,""rectSize"":[60,120]},{""timeMs"":16514,""rectSize"":[50,100]},{""timeMs"":17030,""rectSize"":[60,120]},{""timeMs"":17546,""rectSize"":[50,100]},{""timeMs"":18063,""rectSize"":[60,120]},{""timeMs"":18579,""rectSize"":[50,100]},{""timeMs"":19095,""rectSize"":[60,120]},{""timeMs"":19611,""rectSize"":[50,100]},{""timeMs"":20128,""rectSize"":[60,120]},{""timeMs"":20644,""rectSize"":[50,100]},{""timeMs"":21160,""rectSize"":[60,120]},{""timeMs"":21676,""rectSize"":[50,100]},{""timeMs"":22192,""rectSize"":[60,120]},{""timeMs"":22709,""rectSize"":[50,100]},{""timeMs"":23225,""rectSize"":[60,120]},{""timeMs"":23741,""rectSize"":[50,100]},{""timeMs"":24257,""rectSize"":[60,120]},{""timeMs"":24773,""rectSize"":[50,100]},{""timeMs"":25290,""rectSize"":[60,120]},{""timeMs"":25806,""rectSize"":[50,100]},{""timeMs"":26322,""rectSize"":[60,120]},{""timeMs"":26838,""rectSize"":[50,100]},{""timeMs"":27355,""rectSize"":[60,120]},{""timeMs"":27871,""rectSize"":[50,100]},{""timeMs"":28387,""rectSize"":[60,120]},{""timeMs"":28903,""rectSize"":[50,100]},{""timeMs"":29420,""rectSize"":[60,120]},{""timeMs"":29936,""rectSize"":[50,100]}]","[{""timeMs"":461,""colorHsl"":""hsl(290, 100%, 50%)""},{""timeMs"":927,""colorHsl"":""hsl(210, 100%, 50%)""},{""timeMs"":1394,""colorHsl"":""hsl(290, 100%, 50%)""},{""timeMs"":1860,""colorHsl"":""hsl(210, 100%, 50%)""},{""timeMs"":2326,""colorHsl"":""hsl(290, 100%, 50%)""},{""timeMs"":2792,""colorHsl"":""hsl(210, 100%, 50%)""},{""timeMs"":3259,""colorHsl"":""hsl(290, 100%, 50%)""},{""timeMs"":3725,""colorHsl"":""hsl(210, 100%, 50%)""},{""timeMs"":4191,""colorHsl"":""hsl(290, 100%, 50%)""},{""timeMs"":4657,""colorHsl"":""hsl(210, 100%, 50%)""},{""timeMs"":5124,""colorHsl"":""hsl(290, 100%, 50%)""},{""timeMs"":5590,""colorHsl"":""hsl(210, 100%, 50%)""},{""timeMs"":6056,""colorHsl"":""hsl(290, 100%, 50%)""},{""timeMs"":6522,""colorHsl"":""hsl(210, 100%, 50%)""},{""timeMs"":6989,""colorHsl"":""hsl(290, 100%, 50%)""},{""timeMs"":7455,""colorHsl"":""hsl(210, 100%, 50%)""},{""timeMs"":7921,""colorHsl"":""hsl(290, 100%, 50%)""},{""timeMs"":8387,""colorHsl"":""hsl(210, 100%, 50%)""},{""timeMs"":8854,""colorHsl"":""hsl(290, 100%, 50%)""},{""timeMs"":9320,""colorHsl"":""hsl(210, 100%, 50%)""},{""timeMs"":9786,""colorHsl"":""hsl(290, 100%, 50%)""},{""timeMs"":10253,""colorHsl"":""hsl(210, 100%, 50%)""},{""timeMs"":10719,""colorHsl"":""hsl(290, 100%, 50%)""},{""timeMs"":11185,""colorHsl"":""hsl(210, 100%, 50%)""},{""timeMs"":11651,""colorHsl"":""hsl(290, 100%, 50%)""},{""timeMs"":12118,""colorHsl"":""hsl(210, 100%, 50%)""},{""timeMs"":12584,""colorHsl"":""hsl(290, 100%, 50%)""},{""timeMs"":13050,""colorHsl"":""hsl(210, 100%, 50%)""},{""timeMs"":13516,""colorHsl"":""hsl(290, 100%, 50%)""},{""timeMs"":13983,""colorHsl"":""hsl(210, 100%, 50%)""},{""timeMs"":14449,""colorHsl"":""hsl(290, 100%, 50%)""},{""timeMs"":14915,""colorHsl"":""hsl(210, 100%, 50%)""},{""timeMs"":15382,""colorHsl"":""hsl(290, 100%, 50%)""},{""timeMs"":15848,""colorHsl"":""hsl(210, 100%, 50%)""},{""timeMs"":16314,""colorHsl"":""hsl(290, 100%, 50%)""},{""timeMs"":16780,""colorHsl"":""hsl(210, 100%, 50%)""},{""timeMs"":17247,""colorHsl"":""hsl(290, 100%, 50%)""},{""timeMs"":17713,""colorHsl"":""hsl(210, 100%, 50%)""},{""timeMs"":18179,""colorHsl"":""hsl(290, 100%, 50%)""},{""timeMs"":18646,""colorHsl"":""hsl(210, 100%, 50%)""},{""timeMs"":19112,""colorHsl"":""hsl(290, 100%, 50%)""},{""timeMs"":19578,""colorHsl"":""hsl(210, 100%, 50%)""},{""timeMs"":20044,""colorHsl"":""hsl(290, 100%, 50%)""},{""timeMs"":20511,""colorHsl"":""hsl(210, 100%, 50%)""},{""timeMs"":20977,""colorHsl"":""hsl(290, 100%, 50%)""},{""timeMs"":21443,""colorHsl"":""hsl(210, 100%, 50%)""},{""timeMs"":21909,""colorHsl"":""hsl(290, 100%, 50%)""},{""timeMs"":22376,""colorHsl"":""hsl(210, 100%, 50%)""},{""timeMs"":22842,""colorHsl"":""hsl(290, 100%, 50%)""},{""timeMs"":23308,""colorHsl"":""hsl(210, 100%, 50%)""},{""timeMs"":23774,""colorHsl"":""hsl(290, 100%, 50%)""},{""timeMs"":24241,""colorHsl"":""hsl(210, 100%, 50%)""},{""timeMs"":24707,""colorHsl"":""hsl(290, 100%, 50%)""},{""timeMs"":25173,""colorHsl"":""hsl(210, 100%, 50%)""},{""timeMs"":25639,""colorHsl"":""hsl(290, 100%, 50%)""},{""timeMs"":26106,""colorHsl"":""hsl(210, 100%, 50%)""},{""timeMs"":26572,""colorHsl"":""hsl(290, 100%, 50%)""},{""timeMs"":27038,""colorHsl"":""hsl(210, 100%, 50%)""},{""timeMs"":27505,""colorHsl"":""hsl(290, 100%, 50%)""},{""timeMs"":27971,""colorHsl"":""hsl(210, 100%, 50%)""},{""timeMs"":28437,""colorHsl"":""hsl(290, 100%, 50%)""},{""timeMs"":28903,""colorHsl"":""hsl(210, 100%, 50%)""},{""timeMs"":29370,""colorHsl"":""hsl(290, 100%, 50%)""},{""timeMs"":29836,""colorHsl"":""hsl(210, 100%, 50%)""}]","[{""time_ms"":724},{""time_ms"":1585},{""time_ms"":2555},{""time_ms"":3610},{""time_ms"":4852},{""time_ms"":5992},{""time_ms"":7030},{""time_ms"":8031},{""time_ms"":9065},{""time_ms"":10035},{""time_ms"":11060},{""time_ms"":12129},{""time_ms"":13151},{""time_ms"":14206},{""time_ms"":15218},{""time_ms"":16219},{""time_ms"":17291},{""time_ms"":18350},{""time_ms"":19396},{""time_ms"":20448},{""time_ms"":21475},{""time_ms"":22502},{""time_ms"":23516},{""time_ms"":24528},{""time_ms"":25491},{""time_ms"":26578},{""time_ms"":27593},{""time_ms"":28655},{""time_ms"":29680}]","30000","size","color-size","30002.5","6",""
"html-keyboard-response","39","349479","0.0-33.0-0.0","male","29","100","p1.1_666149cb6a138209b157427b","November 30, 2025 at 11:30 AM","November 30, 2025 at 11:53 AM","{""browser"":""Chrome"",""version"":""142""}","null","[""<div class='jspsych-display-element' style='justify-content: center; align-items: center; min-height: 80vh; width: 100%;'><div style='display: inline-block; margin: 0 auto; color: black; font-size: 2.5vh; line-height: 3.2vh; padding: 10px 200px 10px 200px; text-align: left'><p><div style='color: red; display: inline-block;'> <h1>Track Color</h1> </div> changes and <div style='color: red; display: inline-block;'> <h1>ignore Size</h1> </div> changes.</p><p>Press Enter to start the display.</p></div></div>""]","null","attendedFeatureInstr","","","","","","","","","","","","","","","","","","","","",""
"html-keyboard-response","40","354286","0.0-33.0-1.0","male","29","100","p1.1_666149cb6a138209b157427b","November 30, 2025 at 11:30 AM","November 30, 2025 at 11:53 AM","{""browser"":""Chrome"",""version"":""142""}","4807","[""<div class='jspsych-display-element' style='justify-content: center; align-items: center; min-height: 80vh; width: 100%;'><div style='display: inline-block; margin: 0 auto; color: black; font-size: 2.5vh; line-height: 3.2vh; padding: 10px 200px 10px 200px; text-align: left'><p><div style='color: red; display: inline-block;'> <h1>Track Color</h1> </div> changes and <div style='color: red; display: inline-block;'> <h1>ignore Size</h1> </div> changes.</p><p>Press Enter to start the display.</p></div></div>""]","enter","trialStartWaiting","","","","","","","","","","","","","","","","","","","","",""
"html-keyboard-response","41","355055","0.0-34.0","male","29","100","p1.1_666149cb6a138209b157427b","November 30, 2025 at 11:30 AM","November 30, 2025 at 11:53 AM","{""browser"":""Chrome"",""version"":""142""}","null","<p style='color: white; font-size: 50px; text-align: center'>+</p>","null","ITI","","","","","","","","","","","","","","","","","","","","",""
"rhytmicFeatureChangeTask","42","385071","0.0-35.0","male","29","100","p1.1_666149cb6a138209b157427b","November 30, 2025 at 11:30 AM","November 30, 2025 at 11:53 AM","{""browser"":""Chrome"",""version"":""142""}","","","","test","","","400","350","[50,100]","1.2","[10,20]","[60,120]","hsl(210, 100%, 50%)","80","2.625","hsl(290, 100%, 50%)","[{""timeMs"":407,""rectSize"":[60,120]},{""timeMs"":823,""rectSize"":[50,100]},{""timeMs"":1240,""rectSize"":[60,120]},{""timeMs"":1656,""rectSize"":[50,100]},{""timeMs"":2072,""rectSize"":[60,120]},{""timeMs"":2489,""rectSize"":[50,100]},{""timeMs"":2905,""rectSize"":[60,120]},{""timeMs"":3321,""rectSize"":[50,100]},{""timeMs"":3738,""rectSize"":[60,120]},{""timeMs"":4154,""rectSize"":[50,100]},{""timeMs"":4570,""rectSize"":[60,120]},{""timeMs"":4987,""rectSize"":[50,100]},{""timeMs"":5403,""rectSize"":[60,120]},{""timeMs"":5819,""rectSize"":[50,100]},{""timeMs"":6236,""rectSize"":[60,120]},{""timeMs"":6652,""rectSize"":[50,100]},{""timeMs"":7068,""rectSize"":[60,120]},{""timeMs"":7484,""rectSize"":[50,100]},{""timeMs"":7901,""rectSize"":[60,120]},{""timeMs"":8317,""rectSize"":[50,100]},{""timeMs"":8733,""rectSize"":[60,120]},{""timeMs"":9150,""rectSize"":[50,100]},{""timeMs"":9566,""rectSize"":[60,120]},{""timeMs"":9982,""rectSize"":[50,100]},{""timeMs"":10399,""rectSize"":[60,120]},{""timeMs"":10815,""rectSize"":[50,100]},{""timeMs"":11231,""rectSize"":[60,120]},{""timeMs"":11648,""rectSize"":[50,100]},{""timeMs"":12064,""rectSize"":[60,120]},{""timeMs"":12480,""rectSize"":[50,100]},{""timeMs"":12897,""rectSize"":[60,120]},{""timeMs"":13313,""rectSize"":[50,100]},{""timeMs"":13729,""rectSize"":[60,120]},{""timeMs"":14146,""rectSize"":[50,100]},{""timeMs"":14562,""rectSize"":[60,120]},{""timeMs"":14978,""rectSize"":[50,100]},{""timeMs"":15394,""rectSize"":[60,120]},{""timeMs"":15811,""rectSize"":[50,100]},{""timeMs"":16227,""rectSize"":[60,120]},{""timeMs"":16643,""rectSize"":[50,100]},{""timeMs"":17060,""rectSize"":[60,120]},{""timeMs"":17476,""rectSize"":[50,100]},{""timeMs"":17892,""rectSize"":[60,120]},{""timeMs"":18309,""rectSize"":[50,100]},{""timeMs"":18725,""rectSize"":[60,120]},{""timeMs"":19141,""rectSize"":[50,100]},{""timeMs"":19558,""rectSize"":[60,120]},{""timeMs"":19974,""rectSize"":[50,100]},{""timeMs"":20390,""rectSize"":[60,120]},{""timeMs"":20806,""rectSize"":[50,100]},{""timeMs"":21223,""rectSize"":[60,120]},{""timeMs"":21639,""rectSize"":[50,100]},{""timeMs"":22055,""rectSize"":[60,120]},{""timeMs"":22472,""rectSize"":[50,100]},{""timeMs"":22888,""rectSize"":[60,120]},{""timeMs"":23304,""rectSize"":[50,100]},{""timeMs"":23721,""rectSize"":[60,120]},{""timeMs"":24137,""rectSize"":[50,100]},{""timeMs"":24553,""rectSize"":[60,120]},{""timeMs"":24970,""rectSize"":[50,100]},{""timeMs"":25386,""rectSize"":[60,120]},{""timeMs"":25802,""rectSize"":[50,100]},{""timeMs"":26219,""rectSize"":[60,120]},{""timeMs"":26635,""rectSize"":[50,100]},{""timeMs"":27051,""rectSize"":[60,120]},{""timeMs"":27467,""rectSize"":[50,100]},{""timeMs"":27884,""rectSize"":[60,120]},{""timeMs"":28300,""rectSize"":[50,100]},{""timeMs"":28716,""rectSize"":[60,120]},{""timeMs"":29133,""rectSize"":[50,100]},{""timeMs"":29549,""rectSize"":[60,120]},{""timeMs"":29965,""rectSize"":[50,100]}]","[{""timeMs"":357,""colorHsl"":""hsl(290, 100%, 50%)""},{""timeMs"":723,""colorHsl"":""hsl(210, 100%, 50%)""},{""timeMs"":1090,""colorHsl"":""hsl(290, 100%, 50%)""},{""timeMs"":1456,""colorHsl"":""hsl(210, 100%, 50%)""},{""timeMs"":1823,""colorHsl"":""hsl(290, 100%, 50%)""},{""timeMs"":2189,""colorHsl"":""hsl(210, 100%, 50%)""},{""timeMs"":2555,""colorHsl"":""hsl(290, 100%, 50%)""},{""timeMs"":2922,""colorHsl"":""hsl(210, 100%, 50%)""},{""timeMs"":3288,""colorHsl"":""hsl(290, 100%, 50%)""},{""timeMs"":3654,""colorHsl"":""hsl(210, 100%, 50%)""},{""timeMs"":4021,""colorHsl"":""hsl(290, 100%, 50%)""},{""timeMs"":4387,""colorHsl"":""hsl(210, 100%, 50%)""},{""timeMs"":4754,""colorHsl"":""hsl(290, 100%, 50%)""},{""timeMs"":5120,""colorHsl"":""hsl(210, 100%, 50%)""},{""timeMs"":5486,""colorHsl"":""hsl(290, 100%, 50%)""},{""timeMs"":5853,""colorHsl"":""hsl(210, 100%, 50%)""},{""timeMs"":6219,""colorHsl"":""hsl(290, 100%, 50%)""},{""timeMs"":6585,""colorHsl"":""hsl(210, 100%, 50%)""},{""timeMs"":6952,""colorHsl"":""hsl(290, 100%, 50%)""},{""timeMs"":7318,""colorHsl"":""hsl(210, 100%, 50%)""},{""timeMs"":7684,""colorHsl"":""hsl(290, 100%, 50%)""},{""timeMs"":8051,""colorHsl"":""hsl(210, 100%, 50%)""},{""timeMs"":8417,""colorHsl"":""hsl(290, 100%, 50%)""},{""timeMs"":8783,""colorHsl"":""hsl(210, 100%, 50%)""},{""timeMs"":9150,""colorHsl"":""hsl(290, 100%, 50%)""},{""timeMs"":9516,""colorHsl"":""hsl(210, 100%, 50%)""},{""timeMs"":9882,""colorHsl"":""hsl(290, 100%, 50%)""},{""timeMs"":10249,""colorHsl"":""hsl(210, 100%, 50%)""},{""timeMs"":10615,""colorHsl"":""hsl(290, 100%, 50%)""},{""timeMs"":10982,""colorHsl"":""hsl(210, 100%, 50%)""},{""timeMs"":11348,""colorHsl"":""hsl(290, 100%, 50%)""},{""timeMs"":11714,""colorHsl"":""hsl(210, 100%, 50%)""},{""timeMs"":12081,""colorHsl"":""hsl(290, 100%, 50%)""},{""timeMs"":12447,""colorHsl"":""hsl(210, 100%, 50%)""},{""timeMs"":12813,""colorHsl"":""hsl(290, 100%, 50%)""},{""timeMs"":13180,""colorHsl"":""hsl(210, 100%, 50%)""},{""timeMs"":13546,""colorHsl"":""hsl(290, 100%, 50%)""},{""timeMs"":13912,""colorHsl"":""hsl(210, 100%, 50%)""},{""timeMs"":14279,""colorHsl"":""hsl(290, 100%, 50%)""},{""timeMs"":14645,""colorHsl"":""hsl(210, 100%, 50%)""},{""timeMs"":15012,""colorHsl"":""hsl(290, 100%, 50%)""},{""timeMs"":15378,""colorHsl"":""hsl(210, 100%, 50%)""},{""timeMs"":15744,""colorHsl"":""hsl(290, 100%, 50%)""},{""timeMs"":16110,""colorHsl"":""hsl(210, 100%, 50%)""},{""timeMs"":16477,""colorHsl"":""hsl(290, 100%, 50%)""},{""timeMs"":16843,""colorHsl"":""hsl(210, 100%, 50%)""},{""timeMs"":17209,""colorHsl"":""hsl(290, 100%, 50%)""},{""timeMs"":17576,""colorHsl"":""hsl(210, 100%, 50%)""},{""timeMs"":17942,""colorHsl"":""hsl(290, 100%, 50%)""},{""timeMs"":18309,""colorHsl"":""hsl(210, 100%, 50%)""},{""timeMs"":18675,""colorHsl"":""hsl(290, 100%, 50%)""},{""timeMs"":19041,""colorHsl"":""hsl(210, 100%, 50%)""},{""timeMs"":19408,""colorHsl"":""hsl(290, 100%, 50%)""},{""timeMs"":19774,""colorHsl"":""hsl(210, 100%, 50%)""},{""timeMs"":20140,""colorHsl"":""hsl(290, 100%, 50%)""},{""timeMs"":20507,""colorHsl"":""hsl(210, 100%, 50%)""},{""timeMs"":20873,""colorHsl"":""hsl(290, 100%, 50%)""},{""timeMs"":21239,""colorHsl"":""hsl(210, 100%, 50%)""},{""timeMs"":21606,""colorHsl"":""hsl(290, 100%, 50%)""},{""timeMs"":21972,""colorHsl"":""hsl(210, 100%, 50%)""},{""timeMs"":22339,""colorHsl"":""hsl(290, 100%, 50%)""},{""timeMs"":22705,""colorHsl"":""hsl(210, 100%, 50%)""},{""timeMs"":23071,""colorHsl"":""hsl(290, 100%, 50%)""},{""timeMs"":23438,""colorHsl"":""hsl(210, 100%, 50%)""},{""timeMs"":23804,""colorHsl"":""hsl(290, 100%, 50%)""},{""timeMs"":24170,""colorHsl"":""hsl(210, 100%, 50%)""},{""timeMs"":24537,""colorHsl"":""hsl(290, 100%, 50%)""},{""timeMs"":24903,""colorHsl"":""hsl(210, 100%, 50%)""},{""timeMs"":25269,""colorHsl"":""hsl(290, 100%, 50%)""},{""timeMs"":25636,""colorHsl"":""hsl(210, 100%, 50%)""},{""timeMs"":26002,""colorHsl"":""hsl(290, 100%, 50%)""},{""timeMs"":26368,""colorHsl"":""hsl(210, 100%, 50%)""},{""timeMs"":26735,""colorHsl"":""hsl(290, 100%, 50%)""},{""timeMs"":27101,""colorHsl"":""hsl(210, 100%, 50%)""},{""timeMs"":27467,""colorHsl"":""hsl(290, 100%, 50%)""},{""timeMs"":27834,""colorHsl"":""hsl(210, 100%, 50%)""},{""timeMs"":28200,""colorHsl"":""hsl(290, 100%, 50%)""},{""timeMs"":28566,""colorHsl"":""hsl(210, 100%, 50%)""},{""timeMs"":28933,""colorHsl"":""hsl(290, 100%, 50%)""},{""timeMs"":29299,""colorHsl"":""hsl(210, 100%, 50%)""},{""timeMs"":29666,""colorHsl"":""hsl(290, 100%, 50%)""}]","[{""time_ms"":626},{""time_ms"":1359},{""time_ms"":2054},{""time_ms"":2766},{""time_ms"":3500},{""time_ms"":4159},{""time_ms"":4863},{""time_ms"":5641},{""time_ms"":6356},{""time_ms"":7092},{""time_ms"":7804},{""time_ms"":8716},{""time_ms"":9395},{""time_ms"":10130},{""time_ms"":10841},{""time_ms"":11604},{""time_ms"":12281},{""time_ms"":12995},{""time_ms"":13667},{""time_ms"":14431},{""time_ms"":15173},{""time_ms"":15882},{""time_ms"":16689},{""time_ms"":17448},{""time_ms"":18180},{""time_ms"":18956},{""time_ms"":19703},{""time_ms"":20388},{""time_ms"":21109},{""time_ms"":21806},{""time_ms"":22517},{""time_ms"":23221},{""time_ms"":23939},{""time_ms"":24726},{""time_ms"":25371},{""time_ms"":26094},{""time_ms"":26860},{""time_ms"":27559},{""time_ms"":28261},{""time_ms"":28988},{""time_ms"":29724}]","30000","color","color-size","30015.3","7",""
"html-keyboard-response","43","385471","0.0-36.0-0.0","male","29","100","p1.1_666149cb6a138209b157427b","November 30, 2025 at 11:30 AM","November 30, 2025 at 11:53 AM","{""browser"":""Chrome"",""version"":""142""}","null","[""<div class='jspsych-display-element' style='justify-content: center; align-items: center; min-height: 80vh; width: 100%;'><div style='display: inline-block; margin: 0 auto; color: black; font-size: 2.5vh; line-height: 3.2vh; padding: 10px 200px 10px 200px; text-align: left'><p><div style='color: red; display: inline-block;'> <h1>Track Size</h1> </div> changes and <div style='color: red; display: inline-block;'> <h1>ignore Color</h1> </div> changes.</p><p>Press Enter to start the display.</p></div></div>""]","null","attendedFeatureInstr","","","","","","","","","","","","","","","","","","","","",""
"html-keyboard-response","44","387069","0.0-36.0-1.0","male","29","100","p1.1_666149cb6a138209b157427b","November 30, 2025 at 11:30 AM","November 30, 2025 at 11:53 AM","{""browser"":""Chrome"",""version"":""142""}","1597","[""<div class='jspsych-display-element' style='justify-content: center; align-items: center; min-height: 80vh; width: 100%;'><div style='display: inline-block; margin: 0 auto; color: black; font-size: 2.5vh; line-height: 3.2vh; padding: 10px 200px 10px 200px; text-align: left'><p><div style='color: red; display: inline-block;'> <h1>Track Size</h1> </div> changes and <div style='color: red; display: inline-block;'> <h1>ignore Color</h1> </div> changes.</p><p>Press Enter to start the display.</p></div></div>""]","enter","trialStartWaiting","","","","","","","","","","","","","","","","","","","","",""
"html-keyboard-response","45","387666","0.0-37.0","male","29","100","p1.1_666149cb6a138209b157427b","November 30, 2025 at 11:30 AM","November 30, 2025 at 11:53 AM","{""browser"":""Chrome"",""version"":""142""}","null","<p style='color: white; font-size: 50px; text-align: center'>+</p>","null","ITI","","","","","","","","","","","","","","","","","","","","",""
