"trial_type","trial_index","time_elapsed","internal_node_id","gender","age","attentionScore","participantID","experimentStartTime","experimentEndTime","browser","rt","stimulus","response","trial_category","mobile","success","sizeTempo","colorTempo","rectBaseSize","sizeChangeRate","sizeChangeAmount","rectChangedSize","baseColor","colorHueChangeAmount","colorHueChangeRate","colorChangedColor","sizeChangeLog","colorChangeLog","keypressLog","displayDurationSet","attendedFeature","testedFeaturePair","displayDurationActualized","trial","value"
"pavlovia","0","1595","0.0-0.0","male","45","100","p1.1_67456b8ca7f25ce61e1d6ecd","November 30, 2025 at 11:20 AM","November 30, 2025 at 11:33 AM","{""browser"":""Chrome"",""version"":""142""}","","","","","","","","","","","","","","","","","","","","","","","","",""
"html-button-response","1","7038","0.0-1.0","male","45","100","p1.1_67456b8ca7f25ce61e1d6ecd","November 30, 2025 at 11:20 AM","November 30, 2025 at 11:33 AM","{""browser"":""Chrome"",""version"":""142""}","5439","[""<div class='jspsych-display-element' style='justify-content: center; align-items: center; min-height: 80vh; width: 100%;'><div style='display: inline-block; margin: 0 auto; color: black; font-size: 2.5vh; line-height: 3.2vh; padding: 10px 200px 10px 200px; text-align: left'>Please note that this experiment is only designed to work from a computer or laptop.  Please <strong> do not </strong> continue if you are using a phone, tablet, or other mobile device.  If you are on a phone, tablet or other mobile device you will need to return to Prolific and click \""stop without completing\"".  <br> <br> If you are currently seeing this page from a laptop or computer, please click on the \""Continue\"" button.</div></div>""]","0","introInstructions","false","","","","","","","","","","","","","","","","","","","",""
"html-keyboard-response","2","10819","0.0-2.0","male","45","100","p1.1_67456b8ca7f25ce61e1d6ecd","November 30, 2025 at 11:20 AM","November 30, 2025 at 11:33 AM","{""browser"":""Chrome"",""version"":""142""}","3780","<div class='jspsych-display-element' style='justify-content: center; align-items: center; min-height: 80vh; width: 100%;'><div style='display: inline-block; margin: 0 auto; color: black; font-size: 2.5vh; line-height: 3.2vh; padding: 10px 200px 10px 200px; text-align: left'>We wanted to provide a heads-up that the end of the experiment will consist of an anonymous survey with multiple questions. A few questions are open-ended questions where you need to type 1-2 sentences. Sometimes participants do not like answering open-ended questions and tend to quit a survey once they see such questions. <br> <br> If a sizable number of people quit a survey halfway, the responses will no longer be useful. Our research depends on good quality responses. Thus, please make sure you do not mind open-ended questions before continuing with experiment.<br> <br> <p><i><strong>Press 'y'</strong> on your keyboard if you agree to answer the open-ended questions at the end of the experiment.</i><br></div></div>","y","introInstructions","","","","","","","","","","","","","","","","","","","","",""
"fullscreen","3","23356","0.0-3.0","male","45","100","p1.1_67456b8ca7f25ce61e1d6ecd","November 30, 2025 at 11:20 AM","November 30, 2025 at 11:33 AM","{""browser"":""Chrome"",""version"":""142""}","","","","introInstructions","","true","","","","","","","","","","","","","","","","","","",""
"html-button-response","4","26317","0.0-4.0","male","45","100","p1.1_67456b8ca7f25ce61e1d6ecd","November 30, 2025 at 11:20 AM","November 30, 2025 at 11:33 AM","{""browser"":""Chrome"",""version"":""142""}","2960","<div class='jspsych-display-element' style='justify-content: center; align-items: center; min-height: 80vh; width: 100%;'><div style='display: inline-block; margin: 0 auto; color: black; font-size: 2.5vh; line-height: 3.2vh; padding: 10px 200px 10px 200px; text-align: left'>Hello! Thank you for volunteering to help out with our study. Please take a moment to adjust your seating so that you can comfortably watch the monitor and use the keyboard. Feel free to dim the lights as well.<br><br>Close the door or do whatever is necessary to <b>minimize disturbance during the experiment</b>. Please also take a moment to silence your phone so that you are not interrupted by any messages mid-experiment. Do not switch to any other tabs or windows until you are complete.<br><br>We will now go over the instructions. Please read these carefully, as you will not be able to complete this experiment without following them precisely.<br><br>A ""Next"" button will appear at the bottom of the screen on each page. This button will be greyed out at the beginning and will be activated after a few seconds (giving you time to read the instructions on each page). Please read everything on each page carefully before clicking on the ""Next"" button to continue to the next page.</div></div>","0","introInstructions","","","","","","","","","","","","","","","","","","","","",""
"instructionPractice","5","36576","0.0-5.0","male","45","100","p1.1_67456b8ca7f25ce61e1d6ecd","November 30, 2025 at 11:20 AM","November 30, 2025 at 11:33 AM","{""browser"":""Chrome"",""version"":""142""}","","","","introInstructions","","","999999","300","[50,100]","1.2","[10,20]","[60,120]","hsl(210, 100%, 50%)","80","2.625","hsl(290, 100%, 50%)","[]","[{""timeMs"":301,""colorHsl"":""hsl(290, 100%, 50%)""},{""timeMs"":601,""colorHsl"":""hsl(210, 100%, 50%)""},{""timeMs"":901,""colorHsl"":""hsl(290, 100%, 50%)""},{""timeMs"":1217,""colorHsl"":""hsl(210, 100%, 50%)""},{""timeMs"":1534,""colorHsl"":""hsl(290, 100%, 50%)""},{""timeMs"":1834,""colorHsl"":""hsl(210, 100%, 50%)""},{""timeMs"":2151,""colorHsl"":""hsl(290, 100%, 50%)""},{""timeMs"":2451,""colorHsl"":""hsl(210, 100%, 50%)""},{""timeMs"":2767,""colorHsl"":""hsl(290, 100%, 50%)""},{""timeMs"":3068,""colorHsl"":""hsl(210, 100%, 50%)""},{""timeMs"":3384,""colorHsl"":""hsl(290, 100%, 50%)""},{""timeMs"":3684,""colorHsl"":""hsl(210, 100%, 50%)""},{""timeMs"":3984,""colorHsl"":""hsl(290, 100%, 50%)""},{""timeMs"":4284,""colorHsl"":""hsl(210, 100%, 50%)""},{""timeMs"":4601,""colorHsl"":""hsl(290, 100%, 50%)""},{""timeMs"":4901,""colorHsl"":""hsl(210, 100%, 50%)""},{""timeMs"":5201,""colorHsl"":""hsl(290, 100%, 50%)""},{""timeMs"":5501,""colorHsl"":""hsl(210, 100%, 50%)""},{""timeMs"":5801,""colorHsl"":""hsl(290, 100%, 50%)""},{""timeMs"":6101,""colorHsl"":""hsl(210, 100%, 50%)""},{""timeMs"":6401,""colorHsl"":""hsl(290, 100%, 50%)""},{""timeMs"":6701,""colorHsl"":""hsl(210, 100%, 50%)""},{""timeMs"":7001,""colorHsl"":""hsl(290, 100%, 50%)""},{""timeMs"":7301,""colorHsl"":""hsl(210, 100%, 50%)""},{""timeMs"":7618,""colorHsl"":""hsl(290, 100%, 50%)""},{""timeMs"":7918,""colorHsl"":""hsl(210, 100%, 50%)""},{""timeMs"":8218,""colorHsl"":""hsl(290, 100%, 50%)""},{""timeMs"":8518,""colorHsl"":""hsl(210, 100%, 50%)""},{""timeMs"":8818,""colorHsl"":""hsl(290, 100%, 50%)""},{""timeMs"":9134,""colorHsl"":""hsl(210, 100%, 50%)""},{""timeMs"":9435,""colorHsl"":""hsl(290, 100%, 50%)""},{""timeMs"":9751,""colorHsl"":""hsl(210, 100%, 50%)""}]","[]","5000","","","","",""
"instructionPractice","6","44389","0.0-6.0","male","45","100","p1.1_67456b8ca7f25ce61e1d6ecd","November 30, 2025 at 11:20 AM","November 30, 2025 at 11:33 AM","{""browser"":""Chrome"",""version"":""142""}","","","","introInstructions","","","300","999999","[50,100]","1.2","[10,20]","[60,120]","hsl(210, 100%, 50%)","80","2.625","hsl(290, 100%, 50%)","[{""timeMs"":312,""rectSize"":[60,120]},{""timeMs"":612,""rectSize"":[50,100]},{""timeMs"":928,""rectSize"":[60,120]},{""timeMs"":1228,""rectSize"":[50,100]},{""timeMs"":1545,""rectSize"":[60,120]},{""timeMs"":1845,""rectSize"":[50,100]},{""timeMs"":2162,""rectSize"":[60,120]},{""timeMs"":2479,""rectSize"":[50,100]},{""timeMs"":2795,""rectSize"":[60,120]},{""timeMs"":3095,""rectSize"":[50,100]},{""timeMs"":3395,""rectSize"":[60,120]},{""timeMs"":3695,""rectSize"":[50,100]},{""timeMs"":3995,""rectSize"":[60,120]},{""timeMs"":4295,""rectSize"":[50,100]},{""timeMs"":4595,""rectSize"":[60,120]},{""timeMs"":4895,""rectSize"":[50,100]},{""timeMs"":5195,""rectSize"":[60,120]},{""timeMs"":5495,""rectSize"":[50,100]},{""timeMs"":5795,""rectSize"":[60,120]},{""timeMs"":6112,""rectSize"":[50,100]},{""timeMs"":6429,""rectSize"":[60,120]},{""timeMs"":6729,""rectSize"":[50,100]},{""timeMs"":7029,""rectSize"":[60,120]},{""timeMs"":7329,""rectSize"":[50,100]},{""timeMs"":7645,""rectSize"":[60,120]}]","[]","[]","5000","","","","",""
"html-button-response","7","51785","0.0-7.0","male","45","100","p1.1_67456b8ca7f25ce61e1d6ecd","November 30, 2025 at 11:20 AM","November 30, 2025 at 11:33 AM","{""browser"":""Chrome"",""version"":""142""}","7394","<div class='jspsych-display-element' style='justify-content: center; align-items: center; min-height: 80vh; width: 100%;'><div style='display: inline-block; margin: 0 auto; color: black; font-size: 2.5vh; line-height: 3.2vh; padding: 10px 200px 10px 200px; text-align: left'>In the examples so far, the rectangle alternated only one feature at a time (either its color or its size) rhythmically. In the actual experiment, both the color and the size will alternate together.<br><br>Let's see an example of this on the next page.</div></div>","0","introInstructions","","","","","","","","","","","","","","","","","","","","",""
"rhytmicFeatureChangeTask","8","60191","0.0-8.0","male","45","100","p1.1_67456b8ca7f25ce61e1d6ecd","November 30, 2025 at 11:20 AM","November 30, 2025 at 11:33 AM","{""browser"":""Chrome"",""version"":""142""}","","","","introInstructions","","","320","280","[50,100]","1.2","[10,20]","[60,120]","hsl(210, 100%, 50%)","80","2.625","hsl(290, 100%, 50%)","[{""timeMs"":335,""rectSize"":[60,120]},{""timeMs"":668,""rectSize"":[50,100]},{""timeMs"":1002,""rectSize"":[60,120]},{""timeMs"":1335,""rectSize"":[50,100]},{""timeMs"":1668,""rectSize"":[60,120]},{""timeMs"":2002,""rectSize"":[50,100]},{""timeMs"":2335,""rectSize"":[60,120]},{""timeMs"":2668,""rectSize"":[50,100]},{""timeMs"":3002,""rectSize"":[60,120]},{""timeMs"":3335,""rectSize"":[50,100]},{""timeMs"":3668,""rectSize"":[60,120]},{""timeMs"":4002,""rectSize"":[50,100]},{""timeMs"":4335,""rectSize"":[60,120]},{""timeMs"":4669,""rectSize"":[50,100]},{""timeMs"":5002,""rectSize"":[60,120]},{""timeMs"":5335,""rectSize"":[50,100]},{""timeMs"":5669,""rectSize"":[60,120]},{""timeMs"":6002,""rectSize"":[50,100]},{""timeMs"":6335,""rectSize"":[60,120]},{""timeMs"":6669,""rectSize"":[50,100]},{""timeMs"":7002,""rectSize"":[60,120]},{""timeMs"":7335,""rectSize"":[50,100]},{""timeMs"":7669,""rectSize"":[60,120]}]","[{""timeMs"":285,""colorHsl"":""hsl(290, 100%, 50%)""},{""timeMs"":568,""colorHsl"":""hsl(210, 100%, 50%)""},{""timeMs"":852,""colorHsl"":""hsl(290, 100%, 50%)""},{""timeMs"":1135,""colorHsl"":""hsl(210, 100%, 50%)""},{""timeMs"":1418,""colorHsl"":""hsl(290, 100%, 50%)""},{""timeMs"":1702,""colorHsl"":""hsl(210, 100%, 50%)""},{""timeMs"":1985,""colorHsl"":""hsl(290, 100%, 50%)""},{""timeMs"":2268,""colorHsl"":""hsl(210, 100%, 50%)""},{""timeMs"":2552,""colorHsl"":""hsl(290, 100%, 50%)""},{""timeMs"":2835,""colorHsl"":""hsl(210, 100%, 50%)""},{""timeMs"":3118,""colorHsl"":""hsl(290, 100%, 50%)""},{""timeMs"":3402,""colorHsl"":""hsl(210, 100%, 50%)""},{""timeMs"":3685,""colorHsl"":""hsl(290, 100%, 50%)""},{""timeMs"":3969,""colorHsl"":""hsl(210, 100%, 50%)""},{""timeMs"":4252,""colorHsl"":""hsl(290, 100%, 50%)""},{""timeMs"":4535,""colorHsl"":""hsl(210, 100%, 50%)""},{""timeMs"":4819,""colorHsl"":""hsl(290, 100%, 50%)""},{""timeMs"":5102,""colorHsl"":""hsl(210, 100%, 50%)""},{""timeMs"":5385,""colorHsl"":""hsl(290, 100%, 50%)""},{""timeMs"":5669,""colorHsl"":""hsl(210, 100%, 50%)""},{""timeMs"":5952,""colorHsl"":""hsl(290, 100%, 50%)""},{""timeMs"":6235,""colorHsl"":""hsl(210, 100%, 50%)""},{""timeMs"":6519,""colorHsl"":""hsl(290, 100%, 50%)""},{""timeMs"":6802,""colorHsl"":""hsl(210, 100%, 50%)""},{""timeMs"":7085,""colorHsl"":""hsl(290, 100%, 50%)""},{""timeMs"":7369,""colorHsl"":""hsl(210, 100%, 50%)""},{""timeMs"":7652,""colorHsl"":""hsl(290, 100%, 50%)""},{""timeMs"":7935,""colorHsl"":""hsl(210, 100%, 50%)""}]","[]","8000","color","color-size","8001.8","",""
"html-button-response","9","81836","0.0-9.0","male","45","100","p1.1_67456b8ca7f25ce61e1d6ecd","November 30, 2025 at 11:20 AM","November 30, 2025 at 11:33 AM","{""browser"":""Chrome"",""version"":""142""}","21644","<div class='jspsych-display-element' style='justify-content: center; align-items: center; min-height: 80vh; width: 100%;'><div style='display: inline-block; margin: 0 auto; color: black; font-size: 2.5vh; line-height: 3.2vh; padding: 10px 200px 10px 200px; text-align: left'>At the beginning of each display, you will be told which feature (color or size) to pay attention to. That is the feature you must keep track of (that feature's rhytmic changes). Whenever the instructed feature changes, you should respond by pressing the Space key. You must try to ignore the other feature, even though it may also be changing at the same time.<br><br>If you are instructed to pay attention to the color, you should press the Space key every time the rectangle changes to purple, and you should try to ignore any size changes throughout the whole display. If you are instructed to pay attention to the size, you should press the Space key every time the rectangle grows larger, and you should try to ignore color changes.<br><br>Because the alternations can be quite fast, you should try to press the Space key as quickly as possible when the relevant change occurs.<br><br>Let's practice first with the color feature.</div></div>","0","instructions","","","","","","","","","","","","","","","","","","","","",""
"html-button-response","10","88433","0.0-10.0","male","45","100","p1.1_67456b8ca7f25ce61e1d6ecd","November 30, 2025 at 11:20 AM","November 30, 2025 at 11:33 AM","{""browser"":""Chrome"",""version"":""142""}","6190","<div class='jspsych-display-element' style='justify-content: center; align-items: center; min-height: 80vh; width: 100%;'><div style='display: inline-block; margin: 0 auto; color: black; font-size: 2.5vh; line-height: 3.2vh; padding: 10px 200px 10px 200px; text-align: left'>Pay attention to the <b>Color</b> change (press the Space key everytime the rectangle turns purple as soon as possible) and ignore the <b>Size</b> change.<br><br>Click on the 'Start' button to start the display. Since the display will start immediately,you should be ready to press the 'Space' key as soon as the rectangle starts alternating its color.</div></div>","0","introInstructions","","","","","","","","","","","","","","","","","","","","",""
"rhytmicFeatureChangeTask","11","108859","0.0-11.0","male","45","100","p1.1_67456b8ca7f25ce61e1d6ecd","November 30, 2025 at 11:20 AM","November 30, 2025 at 11:33 AM","{""browser"":""Chrome"",""version"":""142""}","","","","introInstructions","","","500","700","[50,100]","1.2","[10,20]","[60,120]","hsl(210, 100%, 50%)","80","2.625","hsl(290, 100%, 50%)","[{""timeMs"":510,""rectSize"":[60,120]},{""timeMs"":1010,""rectSize"":[50,100]},{""timeMs"":1511,""rectSize"":[60,120]},{""timeMs"":2011,""rectSize"":[50,100]},{""timeMs"":2527,""rectSize"":[60,120]},{""timeMs"":3027,""rectSize"":[50,100]},{""timeMs"":3544,""rectSize"":[60,120]},{""timeMs"":4044,""rectSize"":[50,100]},{""timeMs"":4544,""rectSize"":[60,120]},{""timeMs"":5044,""rectSize"":[50,100]},{""timeMs"":5561,""rectSize"":[60,120]},{""timeMs"":6061,""rectSize"":[50,100]},{""timeMs"":6561,""rectSize"":[60,120]},{""timeMs"":7077,""rectSize"":[50,100]},{""timeMs"":7577,""rectSize"":[60,120]},{""timeMs"":8078,""rectSize"":[50,100]},{""timeMs"":8578,""rectSize"":[60,120]},{""timeMs"":9078,""rectSize"":[50,100]},{""timeMs"":9594,""rectSize"":[60,120]},{""timeMs"":10111,""rectSize"":[50,100]},{""timeMs"":10611,""rectSize"":[60,120]},{""timeMs"":11111,""rectSize"":[50,100]},{""timeMs"":11628,""rectSize"":[60,120]},{""timeMs"":12128,""rectSize"":[50,100]},{""timeMs"":12628,""rectSize"":[60,120]},{""timeMs"":13144,""rectSize"":[50,100]},{""timeMs"":13644,""rectSize"":[60,120]},{""timeMs"":14161,""rectSize"":[50,100]},{""timeMs"":14661,""rectSize"":[60,120]},{""timeMs"":15161,""rectSize"":[50,100]},{""timeMs"":15678,""rectSize"":[60,120]},{""timeMs"":16178,""rectSize"":[50,100]},{""timeMs"":16678,""rectSize"":[60,120]},{""timeMs"":17178,""rectSize"":[50,100]},{""timeMs"":17678,""rectSize"":[60,120]},{""timeMs"":18178,""rectSize"":[50,100]},{""timeMs"":18695,""rectSize"":[60,120]},{""timeMs"":19195,""rectSize"":[50,100]},{""timeMs"":19711,""rectSize"":[60,120]}]","[{""timeMs"":710,""colorHsl"":""hsl(290, 100%, 50%)""},{""timeMs"":1410,""colorHsl"":""hsl(210, 100%, 50%)""},{""timeMs"":2110,""colorHsl"":""hsl(290, 100%, 50%)""},{""timeMs"":2810,""colorHsl"":""hsl(210, 100%, 50%)""},{""timeMs"":3511,""colorHsl"":""hsl(290, 100%, 50%)""},{""timeMs"":4211,""colorHsl"":""hsl(210, 100%, 50%)""},{""timeMs"":4928,""colorHsl"":""hsl(290, 100%, 50%)""},{""timeMs"":5628,""colorHsl"":""hsl(210, 100%, 50%)""},{""timeMs"":6344,""colorHsl"":""hsl(290, 100%, 50%)""},{""timeMs"":7044,""colorHsl"":""hsl(210, 100%, 50%)""},{""timeMs"":7744,""colorHsl"":""hsl(290, 100%, 50%)""},{""timeMs"":8461,""colorHsl"":""hsl(210, 100%, 50%)""},{""timeMs"":9161,""colorHsl"":""hsl(290, 100%, 50%)""},{""timeMs"":9878,""colorHsl"":""hsl(210, 100%, 50%)""},{""timeMs"":10578,""colorHsl"":""hsl(290, 100%, 50%)""},{""timeMs"":11294,""colorHsl"":""hsl(210, 100%, 50%)""},{""timeMs"":12011,""colorHsl"":""hsl(290, 100%, 50%)""},{""timeMs"":12711,""colorHsl"":""hsl(210, 100%, 50%)""},{""timeMs"":13411,""colorHsl"":""hsl(290, 100%, 50%)""},{""timeMs"":14111,""colorHsl"":""hsl(210, 100%, 50%)""},{""timeMs"":14811,""colorHsl"":""hsl(290, 100%, 50%)""},{""timeMs"":15511,""colorHsl"":""hsl(210, 100%, 50%)""},{""timeMs"":16228,""colorHsl"":""hsl(290, 100%, 50%)""},{""timeMs"":16928,""colorHsl"":""hsl(210, 100%, 50%)""},{""timeMs"":17645,""colorHsl"":""hsl(290, 100%, 50%)""},{""timeMs"":18345,""colorHsl"":""hsl(210, 100%, 50%)""},{""timeMs"":19045,""colorHsl"":""hsl(290, 100%, 50%)""},{""timeMs"":19745,""colorHsl"":""hsl(210, 100%, 50%)""}]","[{""time_ms"":1131},{""time_ms"":2426},{""time_ms"":3806},{""time_ms"":5219},{""time_ms"":6664},{""time_ms"":8080},{""time_ms"":9508},{""time_ms"":10824},{""time_ms"":12269},{""time_ms"":13628},{""time_ms"":15075},{""time_ms"":16508},{""time_ms"":17671},{""time_ms"":19376}]","20000","color","color-size","20011.2","",""
"html-button-response","12","115493","0.0-12.0","male","45","100","p1.1_67456b8ca7f25ce61e1d6ecd","November 30, 2025 at 11:20 AM","November 30, 2025 at 11:33 AM","{""browser"":""Chrome"",""version"":""142""}","6633","<div class='jspsych-display-element' style='justify-content: center; align-items: center; min-height: 80vh; width: 100%;'><div style='display: inline-block; margin: 0 auto; color: black; font-size: 2.5vh; line-height: 3.2vh; padding: 10px 200px 10px 200px; text-align: left'>Pay attention to the <b>Size</b> change (press the Space key everytime the rectangle grows larger as soon as possible) and ignore the <b>Color</b> change.<br><br>Click on the 'Start' button to start the display.</div></div>","0","introInstructions","","","","","","","","","","","","","","","","","","","","",""
"rhytmicFeatureChangeTask","13","135911","0.0-13.0","male","45","100","p1.1_67456b8ca7f25ce61e1d6ecd","November 30, 2025 at 11:20 AM","November 30, 2025 at 11:33 AM","{""browser"":""Chrome"",""version"":""142""}","","","","introInstructions","","","700","500","[50,100]","1.2","[10,20]","[60,120]","hsl(210, 100%, 50%)","80","2.625","hsl(290, 100%, 50%)","[{""timeMs"":709,""rectSize"":[60,120]},{""timeMs"":1409,""rectSize"":[50,100]},{""timeMs"":2109,""rectSize"":[60,120]},{""timeMs"":2809,""rectSize"":[50,100]},{""timeMs"":3509,""rectSize"":[60,120]},{""timeMs"":4209,""rectSize"":[50,100]},{""timeMs"":4909,""rectSize"":[60,120]},{""timeMs"":5609,""rectSize"":[50,100]},{""timeMs"":6326,""rectSize"":[60,120]},{""timeMs"":7042,""rectSize"":[50,100]},{""timeMs"":7742,""rectSize"":[60,120]},{""timeMs"":8459,""rectSize"":[50,100]},{""timeMs"":9159,""rectSize"":[60,120]},{""timeMs"":9876,""rectSize"":[50,100]},{""timeMs"":10576,""rectSize"":[60,120]},{""timeMs"":11292,""rectSize"":[50,100]},{""timeMs"":11992,""rectSize"":[60,120]},{""timeMs"":12693,""rectSize"":[50,100]},{""timeMs"":13409,""rectSize"":[60,120]},{""timeMs"":14109,""rectSize"":[50,100]},{""timeMs"":14826,""rectSize"":[60,120]},{""timeMs"":15526,""rectSize"":[50,100]},{""timeMs"":16226,""rectSize"":[60,120]},{""timeMs"":16926,""rectSize"":[50,100]},{""timeMs"":17643,""rectSize"":[60,120]},{""timeMs"":18343,""rectSize"":[50,100]},{""timeMs"":19043,""rectSize"":[60,120]},{""timeMs"":19743,""rectSize"":[50,100]}]","[{""timeMs"":509,""colorHsl"":""hsl(290, 100%, 50%)""},{""timeMs"":1009,""colorHsl"":""hsl(210, 100%, 50%)""},{""timeMs"":1509,""colorHsl"":""hsl(290, 100%, 50%)""},{""timeMs"":2026,""colorHsl"":""hsl(210, 100%, 50%)""},{""timeMs"":2542,""colorHsl"":""hsl(290, 100%, 50%)""},{""timeMs"":3042,""colorHsl"":""hsl(210, 100%, 50%)""},{""timeMs"":3542,""colorHsl"":""hsl(290, 100%, 50%)""},{""timeMs"":4042,""colorHsl"":""hsl(210, 100%, 50%)""},{""timeMs"":4559,""colorHsl"":""hsl(290, 100%, 50%)""},{""timeMs"":5059,""colorHsl"":""hsl(210, 100%, 50%)""},{""timeMs"":5575,""colorHsl"":""hsl(290, 100%, 50%)""},{""timeMs"":6076,""colorHsl"":""hsl(210, 100%, 50%)""},{""timeMs"":6576,""colorHsl"":""hsl(290, 100%, 50%)""},{""timeMs"":7076,""colorHsl"":""hsl(210, 100%, 50%)""},{""timeMs"":7592,""colorHsl"":""hsl(290, 100%, 50%)""},{""timeMs"":8092,""colorHsl"":""hsl(210, 100%, 50%)""},{""timeMs"":8592,""colorHsl"":""hsl(290, 100%, 50%)""},{""timeMs"":9092,""colorHsl"":""hsl(210, 100%, 50%)""},{""timeMs"":9592,""colorHsl"":""hsl(290, 100%, 50%)""},{""timeMs"":10092,""colorHsl"":""hsl(210, 100%, 50%)""},{""timeMs"":10592,""colorHsl"":""hsl(290, 100%, 50%)""},{""timeMs"":11109,""colorHsl"":""hsl(210, 100%, 50%)""},{""timeMs"":11609,""colorHsl"":""hsl(290, 100%, 50%)""},{""timeMs"":12126,""colorHsl"":""hsl(210, 100%, 50%)""},{""timeMs"":12626,""colorHsl"":""hsl(290, 100%, 50%)""},{""timeMs"":13126,""colorHsl"":""hsl(210, 100%, 50%)""},{""timeMs"":13626,""colorHsl"":""hsl(290, 100%, 50%)""},{""timeMs"":14143,""colorHsl"":""hsl(210, 100%, 50%)""},{""timeMs"":14643,""colorHsl"":""hsl(290, 100%, 50%)""},{""timeMs"":15159,""colorHsl"":""hsl(210, 100%, 50%)""},{""timeMs"":15659,""colorHsl"":""hsl(290, 100%, 50%)""},{""timeMs"":16160,""colorHsl"":""hsl(210, 100%, 50%)""},{""timeMs"":16660,""colorHsl"":""hsl(290, 100%, 50%)""},{""timeMs"":17176,""colorHsl"":""hsl(210, 100%, 50%)""},{""timeMs"":17693,""colorHsl"":""hsl(290, 100%, 50%)""},{""timeMs"":18193,""colorHsl"":""hsl(210, 100%, 50%)""},{""timeMs"":18693,""colorHsl"":""hsl(290, 100%, 50%)""},{""timeMs"":19193,""colorHsl"":""hsl(210, 100%, 50%)""},{""timeMs"":19693,""colorHsl"":""hsl(290, 100%, 50%)""}]","[{""time_ms"":2415},{""time_ms"":3757},{""time_ms"":5143},{""time_ms"":6563},{""time_ms"":7989},{""time_ms"":9475},{""time_ms"":10866},{""time_ms"":12283},{""time_ms"":13667},{""time_ms"":15021},{""time_ms"":16478},{""time_ms"":17917},{""time_ms"":19326}]","20000","size","color-size","20009.8","",""
"html-button-response","14","150119","0.0-14.0","male","45","100","p1.1_67456b8ca7f25ce61e1d6ecd","November 30, 2025 at 11:20 AM","November 30, 2025 at 11:33 AM","{""browser"":""Chrome"",""version"":""142""}","14207","<div class='jspsych-display-element' style='justify-content: center; align-items: center; min-height: 80vh; width: 100%;'><div style='display: inline-block; margin: 0 auto; color: black; font-size: 2.5vh; line-height: 3.2vh; padding: 10px 200px 10px 200px; text-align: left'>That's it. You will just do this same task for about 10 minutes. The rhythm of alternation will vary from one display to the next. Sometimes the color alternation will be faster than the size alternation, sometimes the size will be faster than the color.<br><br>Regardless of these variations, your task remains the same. If you are asked to pay attention to the color, press the Space key everytime the rectangle changes to purple as soon as possible and ignore the size changes. If you are asked to pay attention to the size, press the Space key everytime the rectangle grows larger as soon as possible and ignore the color changes.<br><br>You may find it difficult at times to ignore the other feature, and that is completely normal. The experiment is designed to be challenging in this way. Please do your best to stay focused for the whole task, as your responses are only useful if you give your full attention to the instructed feature.<br><br>Please always use your dominant hand to press the 'Space' key. You can now start the experiment when you are ready.</div></div>","0","introInstructions","","","","","","","","","","","","","","","","","","","","",""
"html-keyboard-response","15","150936","0.0-15.0-0.0","male","45","100","p1.1_67456b8ca7f25ce61e1d6ecd","November 30, 2025 at 11:20 AM","November 30, 2025 at 11:33 AM","{""browser"":""Chrome"",""version"":""142""}","null","[""<div class='jspsych-display-element' style='justify-content: center; align-items: center; min-height: 80vh; width: 100%;'><div style='display: inline-block; margin: 0 auto; color: black; font-size: 2.5vh; line-height: 3.2vh; padding: 10px 200px 10px 200px; text-align: left'><p><div style='color: red; display: inline-block;'> <h1>Track Color</h1> </div> changes and <div style='color: red; display: inline-block;'> <h1>ignore Size</h1> </div> changes.</p><p>Press Enter to start the display.</p></div></div>""]","null","attendedFeatureInstr","","","","","","","","","","","","","","","","","","","","",""
"html-keyboard-response","16","157572","0.0-15.0-1.0","male","45","100","p1.1_67456b8ca7f25ce61e1d6ecd","November 30, 2025 at 11:20 AM","November 30, 2025 at 11:33 AM","{""browser"":""Chrome"",""version"":""142""}","6635","[""<div class='jspsych-display-element' style='justify-content: center; align-items: center; min-height: 80vh; width: 100%;'><div style='display: inline-block; margin: 0 auto; color: black; font-size: 2.5vh; line-height: 3.2vh; padding: 10px 200px 10px 200px; text-align: left'><p><div style='color: red; display: inline-block;'> <h1>Track Color</h1> </div> changes and <div style='color: red; display: inline-block;'> <h1>ignore Size</h1> </div> changes.</p><p>Press Enter to start the display.</p></div></div>""]","enter","trialStartWaiting","","","","","","","","","","","","","","","","","","","","",""
"html-keyboard-response","17","158445","0.0-16.0","male","45","100","p1.1_67456b8ca7f25ce61e1d6ecd","November 30, 2025 at 11:20 AM","November 30, 2025 at 11:33 AM","{""browser"":""Chrome"",""version"":""142""}","null","<p style='color: white; font-size: 50px; text-align: center'>+</p>","null","ITI","","","","","","","","","","","","","","","","","","","","",""
"rhytmicFeatureChangeTask","18","188446","0.0-17.0","male","45","100","p1.1_67456b8ca7f25ce61e1d6ecd","November 30, 2025 at 11:20 AM","November 30, 2025 at 11:33 AM","{""browser"":""Chrome"",""version"":""142""}","","","","test","","","400","350","[50,100]","1.2","[10,20]","[60,120]","hsl(210, 100%, 50%)","80","2.625","hsl(290, 100%, 50%)","[{""timeMs"":416,""rectSize"":[60,120]},{""timeMs"":816,""rectSize"":[50,100]},{""timeMs"":1216,""rectSize"":[60,120]},{""timeMs"":1633,""rectSize"":[50,100]},{""timeMs"":2049,""rectSize"":[60,120]},{""timeMs"":2466,""rectSize"":[50,100]},{""timeMs"":2866,""rectSize"":[60,120]},{""timeMs"":3266,""rectSize"":[50,100]},{""timeMs"":3683,""rectSize"":[60,120]},{""timeMs"":4099,""rectSize"":[50,100]},{""timeMs"":4499,""rectSize"":[60,120]},{""timeMs"":4899,""rectSize"":[50,100]},{""timeMs"":5316,""rectSize"":[60,120]},{""timeMs"":5733,""rectSize"":[50,100]},{""timeMs"":6149,""rectSize"":[60,120]},{""timeMs"":6566,""rectSize"":[50,100]},{""timeMs"":6966,""rectSize"":[60,120]},{""timeMs"":7366,""rectSize"":[50,100]},{""timeMs"":7783,""rectSize"":[60,120]},{""timeMs"":8183,""rectSize"":[50,100]},{""timeMs"":8599,""rectSize"":[60,120]},{""timeMs"":9000,""rectSize"":[50,100]},{""timeMs"":9416,""rectSize"":[60,120]},{""timeMs"":9833,""rectSize"":[50,100]},{""timeMs"":10233,""rectSize"":[60,120]},{""timeMs"":10633,""rectSize"":[50,100]},{""timeMs"":11033,""rectSize"":[60,120]},{""timeMs"":11449,""rectSize"":[50,100]},{""timeMs"":11850,""rectSize"":[60,120]},{""timeMs"":12250,""rectSize"":[50,100]},{""timeMs"":12666,""rectSize"":[60,120]},{""timeMs"":13066,""rectSize"":[50,100]},{""timeMs"":13483,""rectSize"":[60,120]},{""timeMs"":13900,""rectSize"":[50,100]},{""timeMs"":14300,""rectSize"":[60,120]},{""timeMs"":14716,""rectSize"":[50,100]},{""timeMs"":15133,""rectSize"":[60,120]},{""timeMs"":15533,""rectSize"":[50,100]},{""timeMs"":15933,""rectSize"":[60,120]},{""timeMs"":16333,""rectSize"":[50,100]},{""timeMs"":16733,""rectSize"":[60,120]},{""timeMs"":17133,""rectSize"":[50,100]},{""timeMs"":17533,""rectSize"":[60,120]},{""timeMs"":17933,""rectSize"":[50,100]},{""timeMs"":18350,""rectSize"":[60,120]},{""timeMs"":18767,""rectSize"":[50,100]},{""timeMs"":19183,""rectSize"":[60,120]},{""timeMs"":19583,""rectSize"":[50,100]},{""timeMs"":19983,""rectSize"":[60,120]},{""timeMs"":20400,""rectSize"":[50,100]},{""timeMs"":20817,""rectSize"":[60,120]},{""timeMs"":21217,""rectSize"":[50,100]},{""timeMs"":21617,""rectSize"":[60,120]},{""timeMs"":22017,""rectSize"":[50,100]},{""timeMs"":22417,""rectSize"":[60,120]},{""timeMs"":22833,""rectSize"":[50,100]},{""timeMs"":23233,""rectSize"":[60,120]},{""timeMs"":23633,""rectSize"":[50,100]},{""timeMs"":24033,""rectSize"":[60,120]},{""timeMs"":24433,""rectSize"":[50,100]},{""timeMs"":24833,""rectSize"":[60,120]},{""timeMs"":25233,""rectSize"":[50,100]},{""timeMs"":25633,""rectSize"":[60,120]},{""timeMs"":26050,""rectSize"":[50,100]},{""timeMs"":26450,""rectSize"":[60,120]},{""timeMs"":26850,""rectSize"":[50,100]},{""timeMs"":27250,""rectSize"":[60,120]},{""timeMs"":27650,""rectSize"":[50,100]},{""timeMs"":28067,""rectSize"":[60,120]},{""timeMs"":28467,""rectSize"":[50,100]},{""timeMs"":28867,""rectSize"":[60,120]},{""timeMs"":29267,""rectSize"":[50,100]},{""timeMs"":29667,""rectSize"":[60,120]}]","[{""timeMs"":366,""colorHsl"":""hsl(290, 100%, 50%)""},{""timeMs"":716,""colorHsl"":""hsl(210, 100%, 50%)""},{""timeMs"":1082,""colorHsl"":""hsl(290, 100%, 50%)""},{""timeMs"":1432,""colorHsl"":""hsl(210, 100%, 50%)""},{""timeMs"":1782,""colorHsl"":""hsl(290, 100%, 50%)""},{""timeMs"":2132,""colorHsl"":""hsl(210, 100%, 50%)""},{""timeMs"":2499,""colorHsl"":""hsl(290, 100%, 50%)""},{""timeMs"":2849,""colorHsl"":""hsl(210, 100%, 50%)""},{""timeMs"":3216,""colorHsl"":""hsl(290, 100%, 50%)""},{""timeMs"":3582,""colorHsl"":""hsl(210, 100%, 50%)""},{""timeMs"":3933,""colorHsl"":""hsl(290, 100%, 50%)""},{""timeMs"":4299,""colorHsl"":""hsl(210, 100%, 50%)""},{""timeMs"":4649,""colorHsl"":""hsl(290, 100%, 50%)""},{""timeMs"":5016,""colorHsl"":""hsl(210, 100%, 50%)""},{""timeMs"":5366,""colorHsl"":""hsl(290, 100%, 50%)""},{""timeMs"":5733,""colorHsl"":""hsl(210, 100%, 50%)""},{""timeMs"":6099,""colorHsl"":""hsl(290, 100%, 50%)""},{""timeMs"":6449,""colorHsl"":""hsl(210, 100%, 50%)""},{""timeMs"":6799,""colorHsl"":""hsl(290, 100%, 50%)""},{""timeMs"":7149,""colorHsl"":""hsl(210, 100%, 50%)""},{""timeMs"":7499,""colorHsl"":""hsl(290, 100%, 50%)""},{""timeMs"":7866,""colorHsl"":""hsl(210, 100%, 50%)""},{""timeMs"":8216,""colorHsl"":""hsl(290, 100%, 50%)""},{""timeMs"":8566,""colorHsl"":""hsl(210, 100%, 50%)""},{""timeMs"":8916,""colorHsl"":""hsl(290, 100%, 50%)""},{""timeMs"":9266,""colorHsl"":""hsl(210, 100%, 50%)""},{""timeMs"":9616,""colorHsl"":""hsl(290, 100%, 50%)""},{""timeMs"":9966,""colorHsl"":""hsl(210, 100%, 50%)""},{""timeMs"":10333,""colorHsl"":""hsl(290, 100%, 50%)""},{""timeMs"":10683,""colorHsl"":""hsl(210, 100%, 50%)""},{""timeMs"":11033,""colorHsl"":""hsl(290, 100%, 50%)""},{""timeMs"":11400,""colorHsl"":""hsl(210, 100%, 50%)""},{""timeMs"":11750,""colorHsl"":""hsl(290, 100%, 50%)""},{""timeMs"":12100,""colorHsl"":""hsl(210, 100%, 50%)""},{""timeMs"":12466,""colorHsl"":""hsl(290, 100%, 50%)""},{""timeMs"":12816,""colorHsl"":""hsl(210, 100%, 50%)""},{""timeMs"":13166,""colorHsl"":""hsl(290, 100%, 50%)""},{""timeMs"":13516,""colorHsl"":""hsl(210, 100%, 50%)""},{""timeMs"":13883,""colorHsl"":""hsl(290, 100%, 50%)""},{""timeMs"":14250,""colorHsl"":""hsl(210, 100%, 50%)""},{""timeMs"":14600,""colorHsl"":""hsl(290, 100%, 50%)""},{""timeMs"":14966,""colorHsl"":""hsl(210, 100%, 50%)""},{""timeMs"":15316,""colorHsl"":""hsl(290, 100%, 50%)""},{""timeMs"":15683,""colorHsl"":""hsl(210, 100%, 50%)""},{""timeMs"":16033,""colorHsl"":""hsl(290, 100%, 50%)""},{""timeMs"":16383,""colorHsl"":""hsl(210, 100%, 50%)""},{""timeMs"":16733,""colorHsl"":""hsl(290, 100%, 50%)""},{""timeMs"":17100,""colorHsl"":""hsl(210, 100%, 50%)""},{""timeMs"":17450,""colorHsl"":""hsl(290, 100%, 50%)""},{""timeMs"":17800,""colorHsl"":""hsl(210, 100%, 50%)""},{""timeMs"":18166,""colorHsl"":""hsl(290, 100%, 50%)""},{""timeMs"":18516,""colorHsl"":""hsl(210, 100%, 50%)""},{""timeMs"":18866,""colorHsl"":""hsl(290, 100%, 50%)""},{""timeMs"":19217,""colorHsl"":""hsl(210, 100%, 50%)""},{""timeMs"":19583,""colorHsl"":""hsl(290, 100%, 50%)""},{""timeMs"":19933,""colorHsl"":""hsl(210, 100%, 50%)""},{""timeMs"":20283,""colorHsl"":""hsl(290, 100%, 50%)""},{""timeMs"":20650,""colorHsl"":""hsl(210, 100%, 50%)""},{""timeMs"":21016,""colorHsl"":""hsl(290, 100%, 50%)""},{""timeMs"":21367,""colorHsl"":""hsl(210, 100%, 50%)""},{""timeMs"":21717,""colorHsl"":""hsl(290, 100%, 50%)""},{""timeMs"":22067,""colorHsl"":""hsl(210, 100%, 50%)""},{""timeMs"":22417,""colorHsl"":""hsl(290, 100%, 50%)""},{""timeMs"":22767,""colorHsl"":""hsl(210, 100%, 50%)""},{""timeMs"":23117,""colorHsl"":""hsl(290, 100%, 50%)""},{""timeMs"":23467,""colorHsl"":""hsl(210, 100%, 50%)""},{""timeMs"":23833,""colorHsl"":""hsl(290, 100%, 50%)""},{""timeMs"":24183,""colorHsl"":""hsl(210, 100%, 50%)""},{""timeMs"":24550,""colorHsl"":""hsl(290, 100%, 50%)""},{""timeMs"":24900,""colorHsl"":""hsl(210, 100%, 50%)""},{""timeMs"":25267,""colorHsl"":""hsl(290, 100%, 50%)""},{""timeMs"":25617,""colorHsl"":""hsl(210, 100%, 50%)""},{""timeMs"":25967,""colorHsl"":""hsl(290, 100%, 50%)""},{""timeMs"":26317,""colorHsl"":""hsl(210, 100%, 50%)""},{""timeMs"":26667,""colorHsl"":""hsl(290, 100%, 50%)""},{""timeMs"":27017,""colorHsl"":""hsl(210, 100%, 50%)""},{""timeMs"":27367,""colorHsl"":""hsl(290, 100%, 50%)""},{""timeMs"":27717,""colorHsl"":""hsl(210, 100%, 50%)""},{""timeMs"":28067,""colorHsl"":""hsl(290, 100%, 50%)""},{""timeMs"":28417,""colorHsl"":""hsl(210, 100%, 50%)""},{""timeMs"":28767,""colorHsl"":""hsl(290, 100%, 50%)""},{""timeMs"":29134,""colorHsl"":""hsl(210, 100%, 50%)""},{""timeMs"":29484,""colorHsl"":""hsl(290, 100%, 50%)""},{""timeMs"":29834,""colorHsl"":""hsl(210, 100%, 50%)""}]","[{""time_ms"":783},{""time_ms"":1607},{""time_ms"":2188},{""time_ms"":2935},{""time_ms"":3665},{""time_ms"":4380},{""time_ms"":5205},{""time_ms"":5997},{""time_ms"":6385},{""time_ms"":6834},{""time_ms"":7888},{""time_ms"":8486},{""time_ms"":8941},{""time_ms"":9334},{""time_ms"":9739},{""time_ms"":10094},{""time_ms"":10396},{""time_ms"":10738},{""time_ms"":11057},{""time_ms"":11390},{""time_ms"":11821},{""time_ms"":12300},{""time_ms"":12743},{""time_ms"":13179},{""time_ms"":13319},{""time_ms"":13801},{""time_ms"":14285},{""time_ms"":14926},{""time_ms"":15303},{""time_ms"":15913},{""time_ms"":16062},{""time_ms"":16559},{""time_ms"":16745},{""time_ms"":17057},{""time_ms"":17235},{""time_ms"":17467},{""time_ms"":17648},{""time_ms"":17826},{""time_ms"":18084},{""time_ms"":18283},{""time_ms"":18487},{""time_ms"":18663},{""time_ms"":18839},{""time_ms"":19059},{""time_ms"":19504},{""time_ms"":20056},{""time_ms"":20406},{""time_ms"":20624},{""time_ms"":21025},{""time_ms"":21278},{""time_ms"":21512},{""time_ms"":21806},{""time_ms"":22022},{""time_ms"":22267},{""time_ms"":22490},{""time_ms"":22706},{""time_ms"":23003},{""time_ms"":23488},{""time_ms"":23844},{""time_ms"":24314},{""time_ms"":24791},{""time_ms"":28068},{""time_ms"":28480},{""time_ms"":28860},{""time_ms"":29219},{""time_ms"":29631},{""time_ms"":30000}]","30000","color","color-size","30000.4","1",""
"html-keyboard-response","19","188862","0.0-18.0-0.0","male","45","100","p1.1_67456b8ca7f25ce61e1d6ecd","November 30, 2025 at 11:20 AM","November 30, 2025 at 11:33 AM","{""browser"":""Chrome"",""version"":""142""}","null","[""<div class='jspsych-display-element' style='justify-content: center; align-items: center; min-height: 80vh; width: 100%;'><div style='display: inline-block; margin: 0 auto; color: black; font-size: 2.5vh; line-height: 3.2vh; padding: 10px 200px 10px 200px; text-align: left'><p><div style='color: red; display: inline-block;'> <h1>Track Color</h1> </div> changes and <div style='color: red; display: inline-block;'> <h1>ignore Size</h1> </div> changes.</p><p>Press Enter to start the display.</p></div></div>""]","null","attendedFeatureInstr","","","","","","","","","","","","","","","","","","","","",""
"html-keyboard-response","20","191459","0.0-18.0-1.0","male","45","100","p1.1_67456b8ca7f25ce61e1d6ecd","November 30, 2025 at 11:20 AM","November 30, 2025 at 11:33 AM","{""browser"":""Chrome"",""version"":""142""}","2596","[""<div class='jspsych-display-element' style='justify-content: center; align-items: center; min-height: 80vh; width: 100%;'><div style='display: inline-block; margin: 0 auto; color: black; font-size: 2.5vh; line-height: 3.2vh; padding: 10px 200px 10px 200px; text-align: left'><p><div style='color: red; display: inline-block;'> <h1>Track Color</h1> </div> changes and <div style='color: red; display: inline-block;'> <h1>ignore Size</h1> </div> changes.</p><p>Press Enter to start the display.</p></div></div>""]","enter","trialStartWaiting","","","","","","","","","","","","","","","","","","","","",""
"html-keyboard-response","21","192134","0.0-19.0","male","45","100","p1.1_67456b8ca7f25ce61e1d6ecd","November 30, 2025 at 11:20 AM","November 30, 2025 at 11:33 AM","{""browser"":""Chrome"",""version"":""142""}","null","<p style='color: white; font-size: 50px; text-align: center'>+</p>","null","ITI","","","","","","","","","","","","","","","","","","","","",""
"rhytmicFeatureChangeTask","22","222147","0.0-20.0","male","45","100","p1.1_67456b8ca7f25ce61e1d6ecd","November 30, 2025 at 11:20 AM","November 30, 2025 at 11:33 AM","{""browser"":""Chrome"",""version"":""142""}","","","","test","","","500","450","[50,100]","1.2","[10,20]","[60,120]","hsl(210, 100%, 50%)","80","2.625","hsl(290, 100%, 50%)","[{""timeMs"":512,""rectSize"":[60,120]},{""timeMs"":1012,""rectSize"":[50,100]},{""timeMs"":1512,""rectSize"":[60,120]},{""timeMs"":2028,""rectSize"":[50,100]},{""timeMs"":2529,""rectSize"":[60,120]},{""timeMs"":3029,""rectSize"":[50,100]},{""timeMs"":3529,""rectSize"":[60,120]},{""timeMs"":4045,""rectSize"":[50,100]},{""timeMs"":4545,""rectSize"":[60,120]},{""timeMs"":5062,""rectSize"":[50,100]},{""timeMs"":5562,""rectSize"":[60,120]},{""timeMs"":6062,""rectSize"":[50,100]},{""timeMs"":6579,""rectSize"":[60,120]},{""timeMs"":7079,""rectSize"":[50,100]},{""timeMs"":7579,""rectSize"":[60,120]},{""timeMs"":8079,""rectSize"":[50,100]},{""timeMs"":8579,""rectSize"":[60,120]},{""timeMs"":9095,""rectSize"":[50,100]},{""timeMs"":9596,""rectSize"":[60,120]},{""timeMs"":10096,""rectSize"":[50,100]},{""timeMs"":10596,""rectSize"":[60,120]},{""timeMs"":11096,""rectSize"":[50,100]},{""timeMs"":11596,""rectSize"":[60,120]},{""timeMs"":12096,""rectSize"":[50,100]},{""timeMs"":12596,""rectSize"":[60,120]},{""timeMs"":13096,""rectSize"":[50,100]},{""timeMs"":13596,""rectSize"":[60,120]},{""timeMs"":14112,""rectSize"":[50,100]},{""timeMs"":14612,""rectSize"":[60,120]},{""timeMs"":15113,""rectSize"":[50,100]},{""timeMs"":15629,""rectSize"":[60,120]},{""timeMs"":16129,""rectSize"":[50,100]},{""timeMs"":16646,""rectSize"":[60,120]},{""timeMs"":17146,""rectSize"":[50,100]},{""timeMs"":17646,""rectSize"":[60,120]},{""timeMs"":18163,""rectSize"":[50,100]},{""timeMs"":18663,""rectSize"":[60,120]},{""timeMs"":19163,""rectSize"":[50,100]},{""timeMs"":19679,""rectSize"":[60,120]},{""timeMs"":20179,""rectSize"":[50,100]},{""timeMs"":20696,""rectSize"":[60,120]},{""timeMs"":21213,""rectSize"":[50,100]},{""timeMs"":21713,""rectSize"":[60,120]},{""timeMs"":22230,""rectSize"":[50,100]},{""timeMs"":22746,""rectSize"":[60,120]},{""timeMs"":23246,""rectSize"":[50,100]},{""timeMs"":23746,""rectSize"":[60,120]},{""timeMs"":24246,""rectSize"":[50,100]},{""timeMs"":24763,""rectSize"":[60,120]},{""timeMs"":25263,""rectSize"":[50,100]},{""timeMs"":25763,""rectSize"":[60,120]},{""timeMs"":26263,""rectSize"":[50,100]},{""timeMs"":26763,""rectSize"":[60,120]},{""timeMs"":27263,""rectSize"":[50,100]},{""timeMs"":27780,""rectSize"":[60,120]},{""timeMs"":28296,""rectSize"":[50,100]},{""timeMs"":28797,""rectSize"":[60,120]},{""timeMs"":29313,""rectSize"":[50,100]},{""timeMs"":29813,""rectSize"":[60,120]}]","[{""timeMs"":462,""colorHsl"":""hsl(290, 100%, 50%)""},{""timeMs"":928,""colorHsl"":""hsl(210, 100%, 50%)""},{""timeMs"":1378,""colorHsl"":""hsl(290, 100%, 50%)""},{""timeMs"":1829,""colorHsl"":""hsl(210, 100%, 50%)""},{""timeMs"":2295,""colorHsl"":""hsl(290, 100%, 50%)""},{""timeMs"":2745,""colorHsl"":""hsl(210, 100%, 50%)""},{""timeMs"":3212,""colorHsl"":""hsl(290, 100%, 50%)""},{""timeMs"":3662,""colorHsl"":""hsl(210, 100%, 50%)""},{""timeMs"":4129,""colorHsl"":""hsl(290, 100%, 50%)""},{""timeMs"":4579,""colorHsl"":""hsl(210, 100%, 50%)""},{""timeMs"":5029,""colorHsl"":""hsl(290, 100%, 50%)""},{""timeMs"":5479,""colorHsl"":""hsl(210, 100%, 50%)""},{""timeMs"":5929,""colorHsl"":""hsl(290, 100%, 50%)""},{""timeMs"":6379,""colorHsl"":""hsl(210, 100%, 50%)""},{""timeMs"":6845,""colorHsl"":""hsl(290, 100%, 50%)""},{""timeMs"":7295,""colorHsl"":""hsl(210, 100%, 50%)""},{""timeMs"":7745,""colorHsl"":""hsl(290, 100%, 50%)""},{""timeMs"":8195,""colorHsl"":""hsl(210, 100%, 50%)""},{""timeMs"":8646,""colorHsl"":""hsl(290, 100%, 50%)""},{""timeMs"":9112,""colorHsl"":""hsl(210, 100%, 50%)""},{""timeMs"":9562,""colorHsl"":""hsl(290, 100%, 50%)""},{""timeMs"":10012,""colorHsl"":""hsl(210, 100%, 50%)""},{""timeMs"":10479,""colorHsl"":""hsl(290, 100%, 50%)""},{""timeMs"":10946,""colorHsl"":""hsl(210, 100%, 50%)""},{""timeMs"":11396,""colorHsl"":""hsl(290, 100%, 50%)""},{""timeMs"":11862,""colorHsl"":""hsl(210, 100%, 50%)""},{""timeMs"":12329,""colorHsl"":""hsl(290, 100%, 50%)""},{""timeMs"":12779,""colorHsl"":""hsl(210, 100%, 50%)""},{""timeMs"":13229,""colorHsl"":""hsl(290, 100%, 50%)""},{""timeMs"":13679,""colorHsl"":""hsl(210, 100%, 50%)""},{""timeMs"":14129,""colorHsl"":""hsl(290, 100%, 50%)""},{""timeMs"":14596,""colorHsl"":""hsl(210, 100%, 50%)""},{""timeMs"":15046,""colorHsl"":""hsl(290, 100%, 50%)""},{""timeMs"":15512,""colorHsl"":""hsl(210, 100%, 50%)""},{""timeMs"":15963,""colorHsl"":""hsl(290, 100%, 50%)""},{""timeMs"":16429,""colorHsl"":""hsl(210, 100%, 50%)""},{""timeMs"":16879,""colorHsl"":""hsl(290, 100%, 50%)""},{""timeMs"":17346,""colorHsl"":""hsl(210, 100%, 50%)""},{""timeMs"":17812,""colorHsl"":""hsl(290, 100%, 50%)""},{""timeMs"":18263,""colorHsl"":""hsl(210, 100%, 50%)""},{""timeMs"":18713,""colorHsl"":""hsl(290, 100%, 50%)""},{""timeMs"":19163,""colorHsl"":""hsl(210, 100%, 50%)""},{""timeMs"":19613,""colorHsl"":""hsl(290, 100%, 50%)""},{""timeMs"":20079,""colorHsl"":""hsl(210, 100%, 50%)""},{""timeMs"":20529,""colorHsl"":""hsl(290, 100%, 50%)""},{""timeMs"":20979,""colorHsl"":""hsl(210, 100%, 50%)""},{""timeMs"":21446,""colorHsl"":""hsl(290, 100%, 50%)""},{""timeMs"":21896,""colorHsl"":""hsl(210, 100%, 50%)""},{""timeMs"":22363,""colorHsl"":""hsl(290, 100%, 50%)""},{""timeMs"":22813,""colorHsl"":""hsl(210, 100%, 50%)""},{""timeMs"":23263,""colorHsl"":""hsl(290, 100%, 50%)""},{""timeMs"":23730,""colorHsl"":""hsl(210, 100%, 50%)""},{""timeMs"":24196,""colorHsl"":""hsl(290, 100%, 50%)""},{""timeMs"":24646,""colorHsl"":""hsl(210, 100%, 50%)""},{""timeMs"":25096,""colorHsl"":""hsl(290, 100%, 50%)""},{""timeMs"":25546,""colorHsl"":""hsl(210, 100%, 50%)""},{""timeMs"":25996,""colorHsl"":""hsl(290, 100%, 50%)""},{""timeMs"":26446,""colorHsl"":""hsl(210, 100%, 50%)""},{""timeMs"":26913,""colorHsl"":""hsl(290, 100%, 50%)""},{""timeMs"":27363,""colorHsl"":""hsl(210, 100%, 50%)""},{""timeMs"":27813,""colorHsl"":""hsl(290, 100%, 50%)""},{""timeMs"":28263,""colorHsl"":""hsl(210, 100%, 50%)""},{""timeMs"":28730,""colorHsl"":""hsl(290, 100%, 50%)""},{""timeMs"":29197,""colorHsl"":""hsl(210, 100%, 50%)""},{""timeMs"":29663,""colorHsl"":""hsl(290, 100%, 50%)""}]","[{""time_ms"":540},{""time_ms"":1739},{""time_ms"":2557},{""time_ms"":3507},{""time_ms"":4449},{""time_ms"":5335},{""time_ms"":6208},{""time_ms"":7176},{""time_ms"":8023},{""time_ms"":8830},{""time_ms"":9828},{""time_ms"":10842},{""time_ms"":11807},{""time_ms"":12717},{""time_ms"":13648},{""time_ms"":14478},{""time_ms"":15416},{""time_ms"":16328},{""time_ms"":17250},{""time_ms"":18204},{""time_ms"":19102},{""time_ms"":19981},{""time_ms"":20962},{""time_ms"":21827},{""time_ms"":22714},{""time_ms"":23736},{""time_ms"":24777},{""time_ms"":25685},{""time_ms"":26613},{""time_ms"":27542},{""time_ms"":28554},{""time_ms"":29442}]","30000","color","color-size","30013","2",""
"html-keyboard-response","23","222555","0.0-21.0-0.0","male","45","100","p1.1_67456b8ca7f25ce61e1d6ecd","November 30, 2025 at 11:20 AM","November 30, 2025 at 11:33 AM","{""browser"":""Chrome"",""version"":""142""}","null","[""<div class='jspsych-display-element' style='justify-content: center; align-items: center; min-height: 80vh; width: 100%;'><div style='display: inline-block; margin: 0 auto; color: black; font-size: 2.5vh; line-height: 3.2vh; padding: 10px 200px 10px 200px; text-align: left'><p><div style='color: red; display: inline-block;'> <h1>Track Size</h1> </div> changes and <div style='color: red; display: inline-block;'> <h1>ignore Color</h1> </div> changes.</p><p>Press Enter to start the display.</p></div></div>""]","null","attendedFeatureInstr","","","","","","","","","","","","","","","","","","","","",""
"html-keyboard-response","24","225355","0.0-21.0-1.0","male","45","100","p1.1_67456b8ca7f25ce61e1d6ecd","November 30, 2025 at 11:20 AM","November 30, 2025 at 11:33 AM","{""browser"":""Chrome"",""version"":""142""}","2799","[""<div class='jspsych-display-element' style='justify-content: center; align-items: center; min-height: 80vh; width: 100%;'><div style='display: inline-block; margin: 0 auto; color: black; font-size: 2.5vh; line-height: 3.2vh; padding: 10px 200px 10px 200px; text-align: left'><p><div style='color: red; display: inline-block;'> <h1>Track Size</h1> </div> changes and <div style='color: red; display: inline-block;'> <h1>ignore Color</h1> </div> changes.</p><p>Press Enter to start the display.</p></div></div>""]","enter","trialStartWaiting","","","","","","","","","","","","","","","","","","","","",""
"html-keyboard-response","25","226002","0.0-22.0","male","45","100","p1.1_67456b8ca7f25ce61e1d6ecd","November 30, 2025 at 11:20 AM","November 30, 2025 at 11:33 AM","{""browser"":""Chrome"",""version"":""142""}","null","<p style='color: white; font-size: 50px; text-align: center'>+</p>","null","ITI","","","","","","","","","","","","","","","","","","","","",""
"rhytmicFeatureChangeTask","26","256016","0.0-23.0","male","45","100","p1.1_67456b8ca7f25ce61e1d6ecd","November 30, 2025 at 11:20 AM","November 30, 2025 at 11:33 AM","{""browser"":""Chrome"",""version"":""142""}","","","","test","","","400","350","[50,100]","1.2","[10,20]","[60,120]","hsl(210, 100%, 50%)","80","2.625","hsl(290, 100%, 50%)","[{""timeMs"":411,""rectSize"":[60,120]},{""timeMs"":828,""rectSize"":[50,100]},{""timeMs"":1228,""rectSize"":[60,120]},{""timeMs"":1628,""rectSize"":[50,100]},{""timeMs"":2045,""rectSize"":[60,120]},{""timeMs"":2445,""rectSize"":[50,100]},{""timeMs"":2845,""rectSize"":[60,120]},{""timeMs"":3245,""rectSize"":[50,100]},{""timeMs"":3645,""rectSize"":[60,120]},{""timeMs"":4045,""rectSize"":[50,100]},{""timeMs"":4445,""rectSize"":[60,120]},{""timeMs"":4861,""rectSize"":[50,100]},{""timeMs"":5261,""rectSize"":[60,120]},{""timeMs"":5661,""rectSize"":[50,100]},{""timeMs"":6062,""rectSize"":[60,120]},{""timeMs"":6462,""rectSize"":[50,100]},{""timeMs"":6862,""rectSize"":[60,120]},{""timeMs"":7262,""rectSize"":[50,100]},{""timeMs"":7662,""rectSize"":[60,120]},{""timeMs"":8062,""rectSize"":[50,100]},{""timeMs"":8462,""rectSize"":[60,120]},{""timeMs"":8878,""rectSize"":[50,100]},{""timeMs"":9295,""rectSize"":[60,120]},{""timeMs"":9695,""rectSize"":[50,100]},{""timeMs"":10112,""rectSize"":[60,120]},{""timeMs"":10528,""rectSize"":[50,100]},{""timeMs"":10928,""rectSize"":[60,120]},{""timeMs"":11328,""rectSize"":[50,100]},{""timeMs"":11728,""rectSize"":[60,120]},{""timeMs"":12128,""rectSize"":[50,100]},{""timeMs"":12528,""rectSize"":[60,120]},{""timeMs"":12928,""rectSize"":[50,100]},{""timeMs"":13328,""rectSize"":[60,120]},{""timeMs"":13729,""rectSize"":[50,100]},{""timeMs"":14129,""rectSize"":[60,120]},{""timeMs"":14529,""rectSize"":[50,100]},{""timeMs"":14929,""rectSize"":[60,120]},{""timeMs"":15329,""rectSize"":[50,100]},{""timeMs"":15745,""rectSize"":[60,120]},{""timeMs"":16162,""rectSize"":[50,100]},{""timeMs"":16579,""rectSize"":[60,120]},{""timeMs"":16979,""rectSize"":[50,100]},{""timeMs"":17379,""rectSize"":[60,120]},{""timeMs"":17779,""rectSize"":[50,100]},{""timeMs"":18196,""rectSize"":[60,120]},{""timeMs"":18612,""rectSize"":[50,100]},{""timeMs"":19029,""rectSize"":[60,120]},{""timeMs"":19429,""rectSize"":[50,100]},{""timeMs"":19829,""rectSize"":[60,120]},{""timeMs"":20229,""rectSize"":[50,100]},{""timeMs"":20645,""rectSize"":[60,120]},{""timeMs"":21046,""rectSize"":[50,100]},{""timeMs"":21446,""rectSize"":[60,120]},{""timeMs"":21846,""rectSize"":[50,100]},{""timeMs"":22246,""rectSize"":[60,120]},{""timeMs"":22646,""rectSize"":[50,100]},{""timeMs"":23046,""rectSize"":[60,120]},{""timeMs"":23446,""rectSize"":[50,100]},{""timeMs"":23846,""rectSize"":[60,120]},{""timeMs"":24262,""rectSize"":[50,100]},{""timeMs"":24663,""rectSize"":[60,120]},{""timeMs"":25063,""rectSize"":[50,100]},{""timeMs"":25479,""rectSize"":[60,120]},{""timeMs"":25879,""rectSize"":[50,100]},{""timeMs"":26279,""rectSize"":[60,120]},{""timeMs"":26679,""rectSize"":[50,100]},{""timeMs"":27096,""rectSize"":[60,120]},{""timeMs"":27496,""rectSize"":[50,100]},{""timeMs"":27896,""rectSize"":[60,120]},{""timeMs"":28296,""rectSize"":[50,100]},{""timeMs"":28713,""rectSize"":[60,120]},{""timeMs"":29113,""rectSize"":[50,100]},{""timeMs"":29513,""rectSize"":[60,120]},{""timeMs"":29913,""rectSize"":[50,100]}]","[{""timeMs"":361,""colorHsl"":""hsl(290, 100%, 50%)""},{""timeMs"":711,""colorHsl"":""hsl(210, 100%, 50%)""},{""timeMs"":1078,""colorHsl"":""hsl(290, 100%, 50%)""},{""timeMs"":1445,""colorHsl"":""hsl(210, 100%, 50%)""},{""timeMs"":1795,""colorHsl"":""hsl(290, 100%, 50%)""},{""timeMs"":2162,""colorHsl"":""hsl(210, 100%, 50%)""},{""timeMs"":2528,""colorHsl"":""hsl(290, 100%, 50%)""},{""timeMs"":2878,""colorHsl"":""hsl(210, 100%, 50%)""},{""timeMs"":3245,""colorHsl"":""hsl(290, 100%, 50%)""},{""timeMs"":3595,""colorHsl"":""hsl(210, 100%, 50%)""},{""timeMs"":3945,""colorHsl"":""hsl(290, 100%, 50%)""},{""timeMs"":4295,""colorHsl"":""hsl(210, 100%, 50%)""},{""timeMs"":4662,""colorHsl"":""hsl(290, 100%, 50%)""},{""timeMs"":5028,""colorHsl"":""hsl(210, 100%, 50%)""},{""timeMs"":5395,""colorHsl"":""hsl(290, 100%, 50%)""},{""timeMs"":5745,""colorHsl"":""hsl(210, 100%, 50%)""},{""timeMs"":6095,""colorHsl"":""hsl(290, 100%, 50%)""},{""timeMs"":6462,""colorHsl"":""hsl(210, 100%, 50%)""},{""timeMs"":6812,""colorHsl"":""hsl(290, 100%, 50%)""},{""timeMs"":7162,""colorHsl"":""hsl(210, 100%, 50%)""},{""timeMs"":7512,""colorHsl"":""hsl(290, 100%, 50%)""},{""timeMs"":7862,""colorHsl"":""hsl(210, 100%, 50%)""},{""timeMs"":8228,""colorHsl"":""hsl(290, 100%, 50%)""},{""timeMs"":8595,""colorHsl"":""hsl(210, 100%, 50%)""},{""timeMs"":8962,""colorHsl"":""hsl(290, 100%, 50%)""},{""timeMs"":9312,""colorHsl"":""hsl(210, 100%, 50%)""},{""timeMs"":9662,""colorHsl"":""hsl(290, 100%, 50%)""},{""timeMs"":10028,""colorHsl"":""hsl(210, 100%, 50%)""},{""timeMs"":10378,""colorHsl"":""hsl(290, 100%, 50%)""},{""timeMs"":10728,""colorHsl"":""hsl(210, 100%, 50%)""},{""timeMs"":11078,""colorHsl"":""hsl(290, 100%, 50%)""},{""timeMs"":11428,""colorHsl"":""hsl(210, 100%, 50%)""},{""timeMs"":11778,""colorHsl"":""hsl(290, 100%, 50%)""},{""timeMs"":12128,""colorHsl"":""hsl(210, 100%, 50%)""},{""timeMs"":12479,""colorHsl"":""hsl(290, 100%, 50%)""},{""timeMs"":12845,""colorHsl"":""hsl(210, 100%, 50%)""},{""timeMs"":13212,""colorHsl"":""hsl(290, 100%, 50%)""},{""timeMs"":13562,""colorHsl"":""hsl(210, 100%, 50%)""},{""timeMs"":13912,""colorHsl"":""hsl(290, 100%, 50%)""},{""timeMs"":14278,""colorHsl"":""hsl(210, 100%, 50%)""},{""timeMs"":14629,""colorHsl"":""hsl(290, 100%, 50%)""},{""timeMs"":14979,""colorHsl"":""hsl(210, 100%, 50%)""},{""timeMs"":15329,""colorHsl"":""hsl(290, 100%, 50%)""},{""timeMs"":15695,""colorHsl"":""hsl(210, 100%, 50%)""},{""timeMs"":16045,""colorHsl"":""hsl(290, 100%, 50%)""},{""timeMs"":16395,""colorHsl"":""hsl(210, 100%, 50%)""},{""timeMs"":16762,""colorHsl"":""hsl(290, 100%, 50%)""},{""timeMs"":17129,""colorHsl"":""hsl(210, 100%, 50%)""},{""timeMs"":17479,""colorHsl"":""hsl(290, 100%, 50%)""},{""timeMs"":17829,""colorHsl"":""hsl(210, 100%, 50%)""},{""timeMs"":18196,""colorHsl"":""hsl(290, 100%, 50%)""},{""timeMs"":18564,""colorHsl"":""hsl(210, 100%, 50%)""},{""timeMs"":18929,""colorHsl"":""hsl(290, 100%, 50%)""},{""timeMs"":19279,""colorHsl"":""hsl(210, 100%, 50%)""},{""timeMs"":19629,""colorHsl"":""hsl(290, 100%, 50%)""},{""timeMs"":19979,""colorHsl"":""hsl(210, 100%, 50%)""},{""timeMs"":20329,""colorHsl"":""hsl(290, 100%, 50%)""},{""timeMs"":20679,""colorHsl"":""hsl(210, 100%, 50%)""},{""timeMs"":21029,""colorHsl"":""hsl(290, 100%, 50%)""},{""timeMs"":21379,""colorHsl"":""hsl(210, 100%, 50%)""},{""timeMs"":21729,""colorHsl"":""hsl(290, 100%, 50%)""},{""timeMs"":22096,""colorHsl"":""hsl(210, 100%, 50%)""},{""timeMs"":22446,""colorHsl"":""hsl(290, 100%, 50%)""},{""timeMs"":22796,""colorHsl"":""hsl(210, 100%, 50%)""},{""timeMs"":23146,""colorHsl"":""hsl(290, 100%, 50%)""},{""timeMs"":23496,""colorHsl"":""hsl(210, 100%, 50%)""},{""timeMs"":23846,""colorHsl"":""hsl(290, 100%, 50%)""},{""timeMs"":24196,""colorHsl"":""hsl(210, 100%, 50%)""},{""timeMs"":24562,""colorHsl"":""hsl(290, 100%, 50%)""},{""timeMs"":24913,""colorHsl"":""hsl(210, 100%, 50%)""},{""timeMs"":25279,""colorHsl"":""hsl(290, 100%, 50%)""},{""timeMs"":25629,""colorHsl"":""hsl(210, 100%, 50%)""},{""timeMs"":25979,""colorHsl"":""hsl(290, 100%, 50%)""},{""timeMs"":26329,""colorHsl"":""hsl(210, 100%, 50%)""},{""timeMs"":26679,""colorHsl"":""hsl(290, 100%, 50%)""},{""timeMs"":27029,""colorHsl"":""hsl(210, 100%, 50%)""},{""timeMs"":27379,""colorHsl"":""hsl(290, 100%, 50%)""},{""timeMs"":27729,""colorHsl"":""hsl(210, 100%, 50%)""},{""timeMs"":28079,""colorHsl"":""hsl(290, 100%, 50%)""},{""timeMs"":28429,""colorHsl"":""hsl(210, 100%, 50%)""},{""timeMs"":28779,""colorHsl"":""hsl(290, 100%, 50%)""},{""timeMs"":29129,""colorHsl"":""hsl(210, 100%, 50%)""},{""timeMs"":29479,""colorHsl"":""hsl(290, 100%, 50%)""},{""timeMs"":29829,""colorHsl"":""hsl(210, 100%, 50%)""}]","[{""time_ms"":669},{""time_ms"":1408},{""time_ms"":2175},{""time_ms"":3046},{""time_ms"":3882},{""time_ms"":4713},{""time_ms"":5526},{""time_ms"":6361},{""time_ms"":7126},{""time_ms"":7929},{""time_ms"":8722},{""time_ms"":9539},{""time_ms"":10375},{""time_ms"":11235},{""time_ms"":12077},{""time_ms"":12827},{""time_ms"":13640},{""time_ms"":14421},{""time_ms"":15197},{""time_ms"":15918},{""time_ms"":16750},{""time_ms"":17635},{""time_ms"":18494},{""time_ms"":19353},{""time_ms"":20123},{""time_ms"":20917},{""time_ms"":21696},{""time_ms"":22501},{""time_ms"":23285},{""time_ms"":24035},{""time_ms"":24969},{""time_ms"":25763},{""time_ms"":26539},{""time_ms"":27275},{""time_ms"":28101},{""time_ms"":28949},{""time_ms"":29801}]","30000","size","color-size","30012.7","3",""
"html-keyboard-response","27","256431","0.0-24.0-0.0","male","45","100","p1.1_67456b8ca7f25ce61e1d6ecd","November 30, 2025 at 11:20 AM","November 30, 2025 at 11:33 AM","{""browser"":""Chrome"",""version"":""142""}","null","[""<div class='jspsych-display-element' style='justify-content: center; align-items: center; min-height: 80vh; width: 100%;'><div style='display: inline-block; margin: 0 auto; color: black; font-size: 2.5vh; line-height: 3.2vh; padding: 10px 200px 10px 200px; text-align: left'><p><div style='color: red; display: inline-block;'> <h1>Track Color</h1> </div> changes and <div style='color: red; display: inline-block;'> <h1>ignore Size</h1> </div> changes.</p><p>Press Enter to start the display.</p></div></div>""]","null","attendedFeatureInstr","","","","","","","","","","","","","","","","","","","","",""
"html-keyboard-response","28","259116","0.0-24.0-1.0","male","45","100","p1.1_67456b8ca7f25ce61e1d6ecd","November 30, 2025 at 11:20 AM","November 30, 2025 at 11:33 AM","{""browser"":""Chrome"",""version"":""142""}","2684","[""<div class='jspsych-display-element' style='justify-content: center; align-items: center; min-height: 80vh; width: 100%;'><div style='display: inline-block; margin: 0 auto; color: black; font-size: 2.5vh; line-height: 3.2vh; padding: 10px 200px 10px 200px; text-align: left'><p><div style='color: red; display: inline-block;'> <h1>Track Color</h1> </div> changes and <div style='color: red; display: inline-block;'> <h1>ignore Size</h1> </div> changes.</p><p>Press Enter to start the display.</p></div></div>""]","enter","trialStartWaiting","","","","","","","","","","","","","","","","","","","","",""
"html-keyboard-response","29","259694","0.0-25.0","male","45","100","p1.1_67456b8ca7f25ce61e1d6ecd","November 30, 2025 at 11:20 AM","November 30, 2025 at 11:33 AM","{""browser"":""Chrome"",""version"":""142""}","null","<p style='color: white; font-size: 50px; text-align: center'>+</p>","null","ITI","","","","","","","","","","","","","","","","","","","","",""
"rhytmicFeatureChangeTask","30","289701","0.0-26.0","male","45","100","p1.1_67456b8ca7f25ce61e1d6ecd","November 30, 2025 at 11:20 AM","November 30, 2025 at 11:33 AM","{""browser"":""Chrome"",""version"":""142""}","","","","test","","","450","500","[50,100]","1.2","[10,20]","[60,120]","hsl(210, 100%, 50%)","80","2.625","hsl(290, 100%, 50%)","[{""timeMs"":454,""rectSize"":[60,120]},{""timeMs"":921,""rectSize"":[50,100]},{""timeMs"":1387,""rectSize"":[60,120]},{""timeMs"":1837,""rectSize"":[50,100]},{""timeMs"":2287,""rectSize"":[60,120]},{""timeMs"":2737,""rectSize"":[50,100]},{""timeMs"":3187,""rectSize"":[60,120]},{""timeMs"":3637,""rectSize"":[50,100]},{""timeMs"":4088,""rectSize"":[60,120]},{""timeMs"":4538,""rectSize"":[50,100]},{""timeMs"":4988,""rectSize"":[60,120]},{""timeMs"":5438,""rectSize"":[50,100]},{""timeMs"":5888,""rectSize"":[60,120]},{""timeMs"":6338,""rectSize"":[50,100]},{""timeMs"":6788,""rectSize"":[60,120]},{""timeMs"":7238,""rectSize"":[50,100]},{""timeMs"":7688,""rectSize"":[60,120]},{""timeMs"":8138,""rectSize"":[50,100]},{""timeMs"":8588,""rectSize"":[60,120]},{""timeMs"":9038,""rectSize"":[50,100]},{""timeMs"":9488,""rectSize"":[60,120]},{""timeMs"":9938,""rectSize"":[50,100]},{""timeMs"":10388,""rectSize"":[60,120]},{""timeMs"":10838,""rectSize"":[50,100]},{""timeMs"":11305,""rectSize"":[60,120]},{""timeMs"":11771,""rectSize"":[50,100]},{""timeMs"":12221,""rectSize"":[60,120]},{""timeMs"":12671,""rectSize"":[50,100]},{""timeMs"":13121,""rectSize"":[60,120]},{""timeMs"":13588,""rectSize"":[50,100]},{""timeMs"":14038,""rectSize"":[60,120]},{""timeMs"":14488,""rectSize"":[50,100]},{""timeMs"":14938,""rectSize"":[60,120]},{""timeMs"":15388,""rectSize"":[50,100]},{""timeMs"":15838,""rectSize"":[60,120]},{""timeMs"":16288,""rectSize"":[50,100]},{""timeMs"":16738,""rectSize"":[60,120]},{""timeMs"":17188,""rectSize"":[50,100]},{""timeMs"":17638,""rectSize"":[60,120]},{""timeMs"":18088,""rectSize"":[50,100]},{""timeMs"":18555,""rectSize"":[60,120]},{""timeMs"":19005,""rectSize"":[50,100]},{""timeMs"":19472,""rectSize"":[60,120]},{""timeMs"":19922,""rectSize"":[50,100]},{""timeMs"":20372,""rectSize"":[60,120]},{""timeMs"":20822,""rectSize"":[50,100]},{""timeMs"":21288,""rectSize"":[60,120]},{""timeMs"":21738,""rectSize"":[50,100]},{""timeMs"":22188,""rectSize"":[60,120]},{""timeMs"":22638,""rectSize"":[50,100]},{""timeMs"":23088,""rectSize"":[60,120]},{""timeMs"":23538,""rectSize"":[50,100]},{""timeMs"":23988,""rectSize"":[60,120]},{""timeMs"":24438,""rectSize"":[50,100]},{""timeMs"":24888,""rectSize"":[60,120]},{""timeMs"":25338,""rectSize"":[50,100]},{""timeMs"":25789,""rectSize"":[60,120]},{""timeMs"":26255,""rectSize"":[50,100]},{""timeMs"":26705,""rectSize"":[60,120]},{""timeMs"":27155,""rectSize"":[50,100]},{""timeMs"":27622,""rectSize"":[60,120]},{""timeMs"":28072,""rectSize"":[50,100]},{""timeMs"":28522,""rectSize"":[60,120]},{""timeMs"":28989,""rectSize"":[50,100]},{""timeMs"":29439,""rectSize"":[60,120]},{""timeMs"":29889,""rectSize"":[50,100]}]","[{""timeMs"":504,""colorHsl"":""hsl(290, 100%, 50%)""},{""timeMs"":1004,""colorHsl"":""hsl(210, 100%, 50%)""},{""timeMs"":1521,""colorHsl"":""hsl(290, 100%, 50%)""},{""timeMs"":2021,""colorHsl"":""hsl(210, 100%, 50%)""},{""timeMs"":2521,""colorHsl"":""hsl(290, 100%, 50%)""},{""timeMs"":3037,""colorHsl"":""hsl(210, 100%, 50%)""},{""timeMs"":3537,""colorHsl"":""hsl(290, 100%, 50%)""},{""timeMs"":4037,""colorHsl"":""hsl(210, 100%, 50%)""},{""timeMs"":4538,""colorHsl"":""hsl(290, 100%, 50%)""},{""timeMs"":5038,""colorHsl"":""hsl(210, 100%, 50%)""},{""timeMs"":5554,""colorHsl"":""hsl(290, 100%, 50%)""},{""timeMs"":6054,""colorHsl"":""hsl(210, 100%, 50%)""},{""timeMs"":6554,""colorHsl"":""hsl(290, 100%, 50%)""},{""timeMs"":7054,""colorHsl"":""hsl(210, 100%, 50%)""},{""timeMs"":7554,""colorHsl"":""hsl(290, 100%, 50%)""},{""timeMs"":8071,""colorHsl"":""hsl(210, 100%, 50%)""},{""timeMs"":8571,""colorHsl"":""hsl(290, 100%, 50%)""},{""timeMs"":9071,""colorHsl"":""hsl(210, 100%, 50%)""},{""timeMs"":9588,""colorHsl"":""hsl(290, 100%, 50%)""},{""timeMs"":10088,""colorHsl"":""hsl(210, 100%, 50%)""},{""timeMs"":10605,""colorHsl"":""hsl(290, 100%, 50%)""},{""timeMs"":11121,""colorHsl"":""hsl(210, 100%, 50%)""},{""timeMs"":11621,""colorHsl"":""hsl(290, 100%, 50%)""},{""timeMs"":12121,""colorHsl"":""hsl(210, 100%, 50%)""},{""timeMs"":12638,""colorHsl"":""hsl(290, 100%, 50%)""},{""timeMs"":13138,""colorHsl"":""hsl(210, 100%, 50%)""},{""timeMs"":13638,""colorHsl"":""hsl(290, 100%, 50%)""},{""timeMs"":14138,""colorHsl"":""hsl(210, 100%, 50%)""},{""timeMs"":14638,""colorHsl"":""hsl(290, 100%, 50%)""},{""timeMs"":15138,""colorHsl"":""hsl(210, 100%, 50%)""},{""timeMs"":15655,""colorHsl"":""hsl(290, 100%, 50%)""},{""timeMs"":16171,""colorHsl"":""hsl(210, 100%, 50%)""},{""timeMs"":16671,""colorHsl"":""hsl(290, 100%, 50%)""},{""timeMs"":17172,""colorHsl"":""hsl(210, 100%, 50%)""},{""timeMs"":17688,""colorHsl"":""hsl(290, 100%, 50%)""},{""timeMs"":18188,""colorHsl"":""hsl(210, 100%, 50%)""},{""timeMs"":18705,""colorHsl"":""hsl(290, 100%, 50%)""},{""timeMs"":19222,""colorHsl"":""hsl(210, 100%, 50%)""},{""timeMs"":19722,""colorHsl"":""hsl(290, 100%, 50%)""},{""timeMs"":20222,""colorHsl"":""hsl(210, 100%, 50%)""},{""timeMs"":20722,""colorHsl"":""hsl(290, 100%, 50%)""},{""timeMs"":21222,""colorHsl"":""hsl(210, 100%, 50%)""},{""timeMs"":21738,""colorHsl"":""hsl(290, 100%, 50%)""},{""timeMs"":22238,""colorHsl"":""hsl(210, 100%, 50%)""},{""timeMs"":22755,""colorHsl"":""hsl(290, 100%, 50%)""},{""timeMs"":23255,""colorHsl"":""hsl(210, 100%, 50%)""},{""timeMs"":23772,""colorHsl"":""hsl(290, 100%, 50%)""},{""timeMs"":24288,""colorHsl"":""hsl(210, 100%, 50%)""},{""timeMs"":24788,""colorHsl"":""hsl(290, 100%, 50%)""},{""timeMs"":25288,""colorHsl"":""hsl(210, 100%, 50%)""},{""timeMs"":25789,""colorHsl"":""hsl(290, 100%, 50%)""},{""timeMs"":26305,""colorHsl"":""hsl(210, 100%, 50%)""},{""timeMs"":26805,""colorHsl"":""hsl(290, 100%, 50%)""},{""timeMs"":27322,""colorHsl"":""hsl(210, 100%, 50%)""},{""timeMs"":27822,""colorHsl"":""hsl(290, 100%, 50%)""},{""timeMs"":28322,""colorHsl"":""hsl(210, 100%, 50%)""},{""timeMs"":28822,""colorHsl"":""hsl(290, 100%, 50%)""},{""timeMs"":29322,""colorHsl"":""hsl(210, 100%, 50%)""},{""timeMs"":29822,""colorHsl"":""hsl(290, 100%, 50%)""}]","[{""time_ms"":713},{""time_ms"":1681},{""time_ms"":2760},{""time_ms"":3794},{""time_ms"":4838},{""time_ms"":5874},{""time_ms"":6823},{""time_ms"":7944},{""time_ms"":8904},{""time_ms"":9925},{""time_ms"":10902},{""time_ms"":11907},{""time_ms"":12994},{""time_ms"":14112},{""time_ms"":17032},{""time_ms"":17995},{""time_ms"":18995},{""time_ms"":19963},{""time_ms"":20986},{""time_ms"":22013},{""time_ms"":23038},{""time_ms"":24014},{""time_ms"":25067},{""time_ms"":26125},{""time_ms"":27034},{""time_ms"":28014},{""time_ms"":29065}]","30000","color","color-size","30005.5","4",""
"html-keyboard-response","31","290103","0.0-27.0-0.0","male","45","100","p1.1_67456b8ca7f25ce61e1d6ecd","November 30, 2025 at 11:20 AM","November 30, 2025 at 11:33 AM","{""browser"":""Chrome"",""version"":""142""}","null","[""<div class='jspsych-display-element' style='justify-content: center; align-items: center; min-height: 80vh; width: 100%;'><div style='display: inline-block; margin: 0 auto; color: black; font-size: 2.5vh; line-height: 3.2vh; padding: 10px 200px 10px 200px; text-align: left'><p><div style='color: red; display: inline-block;'> <h1>Track Size</h1> </div> changes and <div style='color: red; display: inline-block;'> <h1>ignore Color</h1> </div> changes.</p><p>Press Enter to start the display.</p></div></div>""]","null","attendedFeatureInstr","","","","","","","","","","","","","","","","","","","","",""
"html-keyboard-response","32","291927","0.0-27.0-1.0","male","45","100","p1.1_67456b8ca7f25ce61e1d6ecd","November 30, 2025 at 11:20 AM","November 30, 2025 at 11:33 AM","{""browser"":""Chrome"",""version"":""142""}","1824","[""<div class='jspsych-display-element' style='justify-content: center; align-items: center; min-height: 80vh; width: 100%;'><div style='display: inline-block; margin: 0 auto; color: black; font-size: 2.5vh; line-height: 3.2vh; padding: 10px 200px 10px 200px; text-align: left'><p><div style='color: red; display: inline-block;'> <h1>Track Size</h1> </div> changes and <div style='color: red; display: inline-block;'> <h1>ignore Color</h1> </div> changes.</p><p>Press Enter to start the display.</p></div></div>""]","enter","trialStartWaiting","","","","","","","","","","","","","","","","","","","","",""
"html-keyboard-response","33","292655","0.0-28.0","male","45","100","p1.1_67456b8ca7f25ce61e1d6ecd","November 30, 2025 at 11:20 AM","November 30, 2025 at 11:33 AM","{""browser"":""Chrome"",""version"":""142""}","null","<p style='color: white; font-size: 50px; text-align: center'>+</p>","null","ITI","","","","","","","","","","","","","","","","","","","","",""
"rhytmicFeatureChangeTask","34","322669","0.0-29.0","male","45","100","p1.1_67456b8ca7f25ce61e1d6ecd","November 30, 2025 at 11:20 AM","November 30, 2025 at 11:33 AM","{""browser"":""Chrome"",""version"":""142""}","","","","test","","","500","450","[50,100]","1.2","[10,20]","[60,120]","hsl(210, 100%, 50%)","80","2.625","hsl(290, 100%, 50%)","[{""timeMs"":511,""rectSize"":[60,120]},{""timeMs"":1013,""rectSize"":[50,100]},{""timeMs"":1528,""rectSize"":[60,120]},{""timeMs"":2045,""rectSize"":[50,100]},{""timeMs"":2545,""rectSize"":[60,120]},{""timeMs"":3045,""rectSize"":[50,100]},{""timeMs"":3545,""rectSize"":[60,120]},{""timeMs"":4045,""rectSize"":[50,100]},{""timeMs"":4545,""rectSize"":[60,120]},{""timeMs"":5062,""rectSize"":[50,100]},{""timeMs"":5562,""rectSize"":[60,120]},{""timeMs"":6078,""rectSize"":[50,100]},{""timeMs"":6578,""rectSize"":[60,120]},{""timeMs"":7078,""rectSize"":[50,100]},{""timeMs"":7578,""rectSize"":[60,120]},{""timeMs"":8078,""rectSize"":[50,100]},{""timeMs"":8595,""rectSize"":[60,120]},{""timeMs"":9112,""rectSize"":[50,100]},{""timeMs"":9612,""rectSize"":[60,120]},{""timeMs"":10112,""rectSize"":[50,100]},{""timeMs"":10612,""rectSize"":[60,120]},{""timeMs"":11112,""rectSize"":[50,100]},{""timeMs"":11612,""rectSize"":[60,120]},{""timeMs"":12129,""rectSize"":[50,100]},{""timeMs"":12645,""rectSize"":[60,120]},{""timeMs"":13162,""rectSize"":[50,100]},{""timeMs"":13679,""rectSize"":[60,120]},{""timeMs"":14195,""rectSize"":[50,100]},{""timeMs"":14695,""rectSize"":[60,120]},{""timeMs"":15195,""rectSize"":[50,100]},{""timeMs"":15712,""rectSize"":[60,120]},{""timeMs"":16212,""rectSize"":[50,100]},{""timeMs"":16729,""rectSize"":[60,120]},{""timeMs"":17229,""rectSize"":[50,100]},{""timeMs"":17729,""rectSize"":[60,120]},{""timeMs"":18229,""rectSize"":[50,100]},{""timeMs"":18745,""rectSize"":[60,120]},{""timeMs"":19245,""rectSize"":[50,100]},{""timeMs"":19745,""rectSize"":[60,120]},{""timeMs"":20245,""rectSize"":[50,100]},{""timeMs"":20745,""rectSize"":[60,120]},{""timeMs"":21245,""rectSize"":[50,100]},{""timeMs"":21745,""rectSize"":[60,120]},{""timeMs"":22246,""rectSize"":[50,100]},{""timeMs"":22746,""rectSize"":[60,120]},{""timeMs"":23246,""rectSize"":[50,100]},{""timeMs"":23746,""rectSize"":[60,120]},{""timeMs"":24246,""rectSize"":[50,100]},{""timeMs"":24763,""rectSize"":[60,120]},{""timeMs"":25263,""rectSize"":[50,100]},{""timeMs"":25763,""rectSize"":[60,120]},{""timeMs"":26263,""rectSize"":[50,100]},{""timeMs"":26779,""rectSize"":[60,120]},{""timeMs"":27279,""rectSize"":[50,100]},{""timeMs"":27779,""rectSize"":[60,120]},{""timeMs"":28279,""rectSize"":[50,100]},{""timeMs"":28779,""rectSize"":[60,120]},{""timeMs"":29279,""rectSize"":[50,100]},{""timeMs"":29796,""rectSize"":[60,120]}]","[{""timeMs"":461,""colorHsl"":""hsl(290, 100%, 50%)""},{""timeMs"":911,""colorHsl"":""hsl(210, 100%, 50%)""},{""timeMs"":1361,""colorHsl"":""hsl(290, 100%, 50%)""},{""timeMs"":1811,""colorHsl"":""hsl(210, 100%, 50%)""},{""timeMs"":2278,""colorHsl"":""hsl(290, 100%, 50%)""},{""timeMs"":2728,""colorHsl"":""hsl(210, 100%, 50%)""},{""timeMs"":3178,""colorHsl"":""hsl(290, 100%, 50%)""},{""timeMs"":3645,""colorHsl"":""hsl(210, 100%, 50%)""},{""timeMs"":4095,""colorHsl"":""hsl(290, 100%, 50%)""},{""timeMs"":4545,""colorHsl"":""hsl(210, 100%, 50%)""},{""timeMs"":5011,""colorHsl"":""hsl(290, 100%, 50%)""},{""timeMs"":5462,""colorHsl"":""hsl(210, 100%, 50%)""},{""timeMs"":5912,""colorHsl"":""hsl(290, 100%, 50%)""},{""timeMs"":6362,""colorHsl"":""hsl(210, 100%, 50%)""},{""timeMs"":6828,""colorHsl"":""hsl(290, 100%, 50%)""},{""timeMs"":7278,""colorHsl"":""hsl(210, 100%, 50%)""},{""timeMs"":7728,""colorHsl"":""hsl(290, 100%, 50%)""},{""timeMs"":8195,""colorHsl"":""hsl(210, 100%, 50%)""},{""timeMs"":8645,""colorHsl"":""hsl(290, 100%, 50%)""},{""timeMs"":9095,""colorHsl"":""hsl(210, 100%, 50%)""},{""timeMs"":9545,""colorHsl"":""hsl(290, 100%, 50%)""},{""timeMs"":10012,""colorHsl"":""hsl(210, 100%, 50%)""},{""timeMs"":10478,""colorHsl"":""hsl(290, 100%, 50%)""},{""timeMs"":10928,""colorHsl"":""hsl(210, 100%, 50%)""},{""timeMs"":11379,""colorHsl"":""hsl(290, 100%, 50%)""},{""timeMs"":11845,""colorHsl"":""hsl(210, 100%, 50%)""},{""timeMs"":12295,""colorHsl"":""hsl(290, 100%, 50%)""},{""timeMs"":12745,""colorHsl"":""hsl(210, 100%, 50%)""},{""timeMs"":13195,""colorHsl"":""hsl(290, 100%, 50%)""},{""timeMs"":13645,""colorHsl"":""hsl(210, 100%, 50%)""},{""timeMs"":14095,""colorHsl"":""hsl(290, 100%, 50%)""},{""timeMs"":14562,""colorHsl"":""hsl(210, 100%, 50%)""},{""timeMs"":15012,""colorHsl"":""hsl(290, 100%, 50%)""},{""timeMs"":15462,""colorHsl"":""hsl(210, 100%, 50%)""},{""timeMs"":15929,""colorHsl"":""hsl(290, 100%, 50%)""},{""timeMs"":16379,""colorHsl"":""hsl(210, 100%, 50%)""},{""timeMs"":16829,""colorHsl"":""hsl(290, 100%, 50%)""},{""timeMs"":17295,""colorHsl"":""hsl(210, 100%, 50%)""},{""timeMs"":17745,""colorHsl"":""hsl(290, 100%, 50%)""},{""timeMs"":18195,""colorHsl"":""hsl(210, 100%, 50%)""},{""timeMs"":18645,""colorHsl"":""hsl(290, 100%, 50%)""},{""timeMs"":19096,""colorHsl"":""hsl(210, 100%, 50%)""},{""timeMs"":19562,""colorHsl"":""hsl(290, 100%, 50%)""},{""timeMs"":20012,""colorHsl"":""hsl(210, 100%, 50%)""},{""timeMs"":20462,""colorHsl"":""hsl(290, 100%, 50%)""},{""timeMs"":20912,""colorHsl"":""hsl(210, 100%, 50%)""},{""timeMs"":21362,""colorHsl"":""hsl(290, 100%, 50%)""},{""timeMs"":21829,""colorHsl"":""hsl(210, 100%, 50%)""},{""timeMs"":22279,""colorHsl"":""hsl(290, 100%, 50%)""},{""timeMs"":22729,""colorHsl"":""hsl(210, 100%, 50%)""},{""timeMs"":23179,""colorHsl"":""hsl(290, 100%, 50%)""},{""timeMs"":23629,""colorHsl"":""hsl(210, 100%, 50%)""},{""timeMs"":24079,""colorHsl"":""hsl(290, 100%, 50%)""},{""timeMs"":24529,""colorHsl"":""hsl(210, 100%, 50%)""},{""timeMs"":24996,""colorHsl"":""hsl(290, 100%, 50%)""},{""timeMs"":25463,""colorHsl"":""hsl(210, 100%, 50%)""},{""timeMs"":25929,""colorHsl"":""hsl(290, 100%, 50%)""},{""timeMs"":26379,""colorHsl"":""hsl(210, 100%, 50%)""},{""timeMs"":26846,""colorHsl"":""hsl(290, 100%, 50%)""},{""timeMs"":27312,""colorHsl"":""hsl(210, 100%, 50%)""},{""timeMs"":27762,""colorHsl"":""hsl(290, 100%, 50%)""},{""timeMs"":28213,""colorHsl"":""hsl(210, 100%, 50%)""},{""timeMs"":28663,""colorHsl"":""hsl(290, 100%, 50%)""},{""timeMs"":29129,""colorHsl"":""hsl(210, 100%, 50%)""},{""timeMs"":29579,""colorHsl"":""hsl(290, 100%, 50%)""}]","[{""time_ms"":722},{""time_ms"":1725},{""time_ms"":2633},{""time_ms"":3596},{""time_ms"":4772},{""time_ms"":5857},{""time_ms"":6863},{""time_ms"":7812},{""time_ms"":8853},{""time_ms"":9892},{""time_ms"":10896},{""time_ms"":11882},{""time_ms"":12981},{""time_ms"":13966},{""time_ms"":15060},{""time_ms"":15965},{""time_ms"":16997},{""time_ms"":18098},{""time_ms"":19026},{""time_ms"":20020},{""time_ms"":21038},{""time_ms"":22049},{""time_ms"":23018},{""time_ms"":24014},{""time_ms"":25021},{""time_ms"":26041},{""time_ms"":27022},{""time_ms"":28086},{""time_ms"":29073}]","30000","size","color-size","30012.5","5",""
"html-keyboard-response","35","323071","0.0-30.0-0.0","male","45","100","p1.1_67456b8ca7f25ce61e1d6ecd","November 30, 2025 at 11:20 AM","November 30, 2025 at 11:33 AM","{""browser"":""Chrome"",""version"":""142""}","null","[""<div class='jspsych-display-element' style='justify-content: center; align-items: center; min-height: 80vh; width: 100%;'><div style='display: inline-block; margin: 0 auto; color: black; font-size: 2.5vh; line-height: 3.2vh; padding: 10px 200px 10px 200px; text-align: left'><p><div style='color: red; display: inline-block;'> <h1>Track Size</h1> </div> changes and <div style='color: red; display: inline-block;'> <h1>ignore Color</h1> </div> changes.</p><p>Press Enter to start the display.</p></div></div>""]","null","attendedFeatureInstr","","","","","","","","","","","","","","","","","","","","",""
"html-keyboard-response","36","324313","0.0-30.0-1.0","male","45","100","p1.1_67456b8ca7f25ce61e1d6ecd","November 30, 2025 at 11:20 AM","November 30, 2025 at 11:33 AM","{""browser"":""Chrome"",""version"":""142""}","1241","[""<div class='jspsych-display-element' style='justify-content: center; align-items: center; min-height: 80vh; width: 100%;'><div style='display: inline-block; margin: 0 auto; color: black; font-size: 2.5vh; line-height: 3.2vh; padding: 10px 200px 10px 200px; text-align: left'><p><div style='color: red; display: inline-block;'> <h1>Track Size</h1> </div> changes and <div style='color: red; display: inline-block;'> <h1>ignore Color</h1> </div> changes.</p><p>Press Enter to start the display.</p></div></div>""]","enter","trialStartWaiting","","","","","","","","","","","","","","","","","","","","",""
"html-keyboard-response","37","325208","0.0-31.0","male","45","100","p1.1_67456b8ca7f25ce61e1d6ecd","November 30, 2025 at 11:20 AM","November 30, 2025 at 11:33 AM","{""browser"":""Chrome"",""version"":""142""}","null","<p style='color: white; font-size: 50px; text-align: center'>+</p>","null","ITI","","","","","","","","","","","","","","","","","","","","",""
"rhytmicFeatureChangeTask","38","355220","0.0-32.0","male","45","100","p1.1_67456b8ca7f25ce61e1d6ecd","November 30, 2025 at 11:20 AM","November 30, 2025 at 11:33 AM","{""browser"":""Chrome"",""version"":""142""}","","","","test","","","450","500","[50,100]","1.2","[10,20]","[60,120]","hsl(210, 100%, 50%)","80","2.625","hsl(290, 100%, 50%)","[{""timeMs"":460,""rectSize"":[60,120]},{""timeMs"":910,""rectSize"":[50,100]},{""timeMs"":1360,""rectSize"":[60,120]},{""timeMs"":1810,""rectSize"":[50,100]},{""timeMs"":2260,""rectSize"":[60,120]},{""timeMs"":2710,""rectSize"":[50,100]},{""timeMs"":3160,""rectSize"":[60,120]},{""timeMs"":3611,""rectSize"":[50,100]},{""timeMs"":4061,""rectSize"":[60,120]},{""timeMs"":4527,""rectSize"":[50,100]},{""timeMs"":4977,""rectSize"":[60,120]},{""timeMs"":5427,""rectSize"":[50,100]},{""timeMs"":5894,""rectSize"":[60,120]},{""timeMs"":6361,""rectSize"":[50,100]},{""timeMs"":6827,""rectSize"":[60,120]},{""timeMs"":7294,""rectSize"":[50,100]},{""timeMs"":7744,""rectSize"":[60,120]},{""timeMs"":8194,""rectSize"":[50,100]},{""timeMs"":8644,""rectSize"":[60,120]},{""timeMs"":9094,""rectSize"":[50,100]},{""timeMs"":9544,""rectSize"":[60,120]},{""timeMs"":9994,""rectSize"":[50,100]},{""timeMs"":10444,""rectSize"":[60,120]},{""timeMs"":10894,""rectSize"":[50,100]},{""timeMs"":11361,""rectSize"":[60,120]},{""timeMs"":11811,""rectSize"":[50,100]},{""timeMs"":12277,""rectSize"":[60,120]},{""timeMs"":12727,""rectSize"":[50,100]},{""timeMs"":13178,""rectSize"":[60,120]},{""timeMs"":13644,""rectSize"":[50,100]},{""timeMs"":14094,""rectSize"":[60,120]},{""timeMs"":14544,""rectSize"":[50,100]},{""timeMs"":14994,""rectSize"":[60,120]},{""timeMs"":15444,""rectSize"":[50,100]},{""timeMs"":15894,""rectSize"":[60,120]},{""timeMs"":16361,""rectSize"":[50,100]},{""timeMs"":16811,""rectSize"":[60,120]},{""timeMs"":17261,""rectSize"":[50,100]},{""timeMs"":17711,""rectSize"":[60,120]},{""timeMs"":18161,""rectSize"":[50,100]},{""timeMs"":18611,""rectSize"":[60,120]},{""timeMs"":19078,""rectSize"":[50,100]},{""timeMs"":19528,""rectSize"":[60,120]},{""timeMs"":19978,""rectSize"":[50,100]},{""timeMs"":20428,""rectSize"":[60,120]},{""timeMs"":20894,""rectSize"":[50,100]},{""timeMs"":21345,""rectSize"":[60,120]},{""timeMs"":21811,""rectSize"":[50,100]},{""timeMs"":22261,""rectSize"":[60,120]},{""timeMs"":22711,""rectSize"":[50,100]},{""timeMs"":23161,""rectSize"":[60,120]},{""timeMs"":23611,""rectSize"":[50,100]},{""timeMs"":24078,""rectSize"":[60,120]},{""timeMs"":24528,""rectSize"":[50,100]},{""timeMs"":24978,""rectSize"":[60,120]},{""timeMs"":25445,""rectSize"":[50,100]},{""timeMs"":25895,""rectSize"":[60,120]},{""timeMs"":26345,""rectSize"":[50,100]},{""timeMs"":26795,""rectSize"":[60,120]},{""timeMs"":27245,""rectSize"":[50,100]},{""timeMs"":27695,""rectSize"":[60,120]},{""timeMs"":28145,""rectSize"":[50,100]},{""timeMs"":28595,""rectSize"":[60,120]},{""timeMs"":29045,""rectSize"":[50,100]},{""timeMs"":29512,""rectSize"":[60,120]},{""timeMs"":29962,""rectSize"":[50,100]}]","[{""timeMs"":510,""colorHsl"":""hsl(290, 100%, 50%)""},{""timeMs"":1010,""colorHsl"":""hsl(210, 100%, 50%)""},{""timeMs"":1510,""colorHsl"":""hsl(290, 100%, 50%)""},{""timeMs"":2010,""colorHsl"":""hsl(210, 100%, 50%)""},{""timeMs"":2527,""colorHsl"":""hsl(290, 100%, 50%)""},{""timeMs"":3044,""colorHsl"":""hsl(210, 100%, 50%)""},{""timeMs"":3544,""colorHsl"":""hsl(290, 100%, 50%)""},{""timeMs"":4044,""colorHsl"":""hsl(210, 100%, 50%)""},{""timeMs"":4544,""colorHsl"":""hsl(290, 100%, 50%)""},{""timeMs"":5044,""colorHsl"":""hsl(210, 100%, 50%)""},{""timeMs"":5544,""colorHsl"":""hsl(290, 100%, 50%)""},{""timeMs"":6044,""colorHsl"":""hsl(210, 100%, 50%)""},{""timeMs"":6544,""colorHsl"":""hsl(290, 100%, 50%)""},{""timeMs"":7044,""colorHsl"":""hsl(210, 100%, 50%)""},{""timeMs"":7561,""colorHsl"":""hsl(290, 100%, 50%)""},{""timeMs"":8061,""colorHsl"":""hsl(210, 100%, 50%)""},{""timeMs"":8561,""colorHsl"":""hsl(290, 100%, 50%)""},{""timeMs"":9061,""colorHsl"":""hsl(210, 100%, 50%)""},{""timeMs"":9577,""colorHsl"":""hsl(290, 100%, 50%)""},{""timeMs"":10077,""colorHsl"":""hsl(210, 100%, 50%)""},{""timeMs"":10594,""colorHsl"":""hsl(290, 100%, 50%)""},{""timeMs"":11094,""colorHsl"":""hsl(210, 100%, 50%)""},{""timeMs"":11594,""colorHsl"":""hsl(290, 100%, 50%)""},{""timeMs"":12094,""colorHsl"":""hsl(210, 100%, 50%)""},{""timeMs"":12611,""colorHsl"":""hsl(290, 100%, 50%)""},{""timeMs"":13127,""colorHsl"":""hsl(210, 100%, 50%)""},{""timeMs"":13628,""colorHsl"":""hsl(290, 100%, 50%)""},{""timeMs"":14128,""colorHsl"":""hsl(210, 100%, 50%)""},{""timeMs"":14628,""colorHsl"":""hsl(290, 100%, 50%)""},{""timeMs"":15144,""colorHsl"":""hsl(210, 100%, 50%)""},{""timeMs"":15644,""colorHsl"":""hsl(290, 100%, 50%)""},{""timeMs"":16161,""colorHsl"":""hsl(210, 100%, 50%)""},{""timeMs"":16661,""colorHsl"":""hsl(290, 100%, 50%)""},{""timeMs"":17161,""colorHsl"":""hsl(210, 100%, 50%)""},{""timeMs"":17661,""colorHsl"":""hsl(290, 100%, 50%)""},{""timeMs"":18161,""colorHsl"":""hsl(210, 100%, 50%)""},{""timeMs"":18661,""colorHsl"":""hsl(290, 100%, 50%)""},{""timeMs"":19178,""colorHsl"":""hsl(210, 100%, 50%)""},{""timeMs"":19694,""colorHsl"":""hsl(290, 100%, 50%)""},{""timeMs"":20194,""colorHsl"":""hsl(210, 100%, 50%)""},{""timeMs"":20694,""colorHsl"":""hsl(290, 100%, 50%)""},{""timeMs"":21194,""colorHsl"":""hsl(210, 100%, 50%)""},{""timeMs"":21694,""colorHsl"":""hsl(290, 100%, 50%)""},{""timeMs"":22194,""colorHsl"":""hsl(210, 100%, 50%)""},{""timeMs"":22695,""colorHsl"":""hsl(290, 100%, 50%)""},{""timeMs"":23195,""colorHsl"":""hsl(210, 100%, 50%)""},{""timeMs"":23695,""colorHsl"":""hsl(290, 100%, 50%)""},{""timeMs"":24211,""colorHsl"":""hsl(210, 100%, 50%)""},{""timeMs"":24712,""colorHsl"":""hsl(290, 100%, 50%)""},{""timeMs"":25228,""colorHsl"":""hsl(210, 100%, 50%)""},{""timeMs"":25728,""colorHsl"":""hsl(290, 100%, 50%)""},{""timeMs"":26228,""colorHsl"":""hsl(210, 100%, 50%)""},{""timeMs"":26728,""colorHsl"":""hsl(290, 100%, 50%)""},{""timeMs"":27228,""colorHsl"":""hsl(210, 100%, 50%)""},{""timeMs"":27728,""colorHsl"":""hsl(290, 100%, 50%)""},{""timeMs"":28228,""colorHsl"":""hsl(210, 100%, 50%)""},{""timeMs"":28728,""colorHsl"":""hsl(290, 100%, 50%)""},{""timeMs"":29245,""colorHsl"":""hsl(210, 100%, 50%)""},{""timeMs"":29745,""colorHsl"":""hsl(290, 100%, 50%)""}]","[{""time_ms"":754},{""time_ms"":1622},{""time_ms"":2516},{""time_ms"":3363},{""time_ms"":4298},{""time_ms"":5154},{""time_ms"":5987},{""time_ms"":6891},{""time_ms"":7964},{""time_ms"":8852},{""time_ms"":9827},{""time_ms"":10775},{""time_ms"":11793},{""time_ms"":12652},{""time_ms"":13553},{""time_ms"":14620},{""time_ms"":16133},{""time_ms"":17085},{""time_ms"":17939},{""time_ms"":18882},{""time_ms"":19817},{""time_ms"":20920},{""time_ms"":22512},{""time_ms"":23446},{""time_ms"":24319},{""time_ms"":25148},{""time_ms"":26068},{""time_ms"":27013},{""time_ms"":27812},{""time_ms"":28763},{""time_ms"":29623}]","30000","size","color-size","30011.4","6",""
"html-keyboard-response","39","355623","0.0-33.0-0.0","male","45","100","p1.1_67456b8ca7f25ce61e1d6ecd","November 30, 2025 at 11:20 AM","November 30, 2025 at 11:33 AM","{""browser"":""Chrome"",""version"":""142""}","null","[""<div class='jspsych-display-element' style='justify-content: center; align-items: center; min-height: 80vh; width: 100%;'><div style='display: inline-block; margin: 0 auto; color: black; font-size: 2.5vh; line-height: 3.2vh; padding: 10px 200px 10px 200px; text-align: left'><p><div style='color: red; display: inline-block;'> <h1>Track Size</h1> </div> changes and <div style='color: red; display: inline-block;'> <h1>ignore Color</h1> </div> changes.</p><p>Press Enter to start the display.</p></div></div>""]","null","attendedFeatureInstr","","","","","","","","","","","","","","","","","","","","",""
"html-keyboard-response","40","356761","0.0-33.0-1.0","male","45","100","p1.1_67456b8ca7f25ce61e1d6ecd","November 30, 2025 at 11:20 AM","November 30, 2025 at 11:33 AM","{""browser"":""Chrome"",""version"":""142""}","1137","[""<div class='jspsych-display-element' style='justify-content: center; align-items: center; min-height: 80vh; width: 100%;'><div style='display: inline-block; margin: 0 auto; color: black; font-size: 2.5vh; line-height: 3.2vh; padding: 10px 200px 10px 200px; text-align: left'><p><div style='color: red; display: inline-block;'> <h1>Track Size</h1> </div> changes and <div style='color: red; display: inline-block;'> <h1>ignore Color</h1> </div> changes.</p><p>Press Enter to start the display.</p></div></div>""]","enter","trialStartWaiting","","","","","","","","","","","","","","","","","","","","",""
"html-keyboard-response","41","357631","0.0-34.0","male","45","100","p1.1_67456b8ca7f25ce61e1d6ecd","November 30, 2025 at 11:20 AM","November 30, 2025 at 11:33 AM","{""browser"":""Chrome"",""version"":""142""}","null","<p style='color: white; font-size: 50px; text-align: center'>+</p>","null","ITI","","","","","","","","","","","","","","","","","","","","",""
"rhytmicFeatureChangeTask","42","387638","0.0-35.0","male","45","100","p1.1_67456b8ca7f25ce61e1d6ecd","November 30, 2025 at 11:20 AM","November 30, 2025 at 11:33 AM","{""browser"":""Chrome"",""version"":""142""}","","","","test","","","350","400","[50,100]","1.2","[10,20]","[60,120]","hsl(210, 100%, 50%)","80","2.625","hsl(290, 100%, 50%)","[{""timeMs"":355,""rectSize"":[60,120]},{""timeMs"":705,""rectSize"":[50,100]},{""timeMs"":1072,""rectSize"":[60,120]},{""timeMs"":1422,""rectSize"":[50,100]},{""timeMs"":1772,""rectSize"":[60,120]},{""timeMs"":2122,""rectSize"":[50,100]},{""timeMs"":2472,""rectSize"":[60,120]},{""timeMs"":2822,""rectSize"":[50,100]},{""timeMs"":3172,""rectSize"":[60,120]},{""timeMs"":3539,""rectSize"":[50,100]},{""timeMs"":3889,""rectSize"":[60,120]},{""timeMs"":4239,""rectSize"":[50,100]},{""timeMs"":4589,""rectSize"":[60,120]},{""timeMs"":4956,""rectSize"":[50,100]},{""timeMs"":5322,""rectSize"":[60,120]},{""timeMs"":5672,""rectSize"":[50,100]},{""timeMs"":6022,""rectSize"":[60,120]},{""timeMs"":6372,""rectSize"":[50,100]},{""timeMs"":6722,""rectSize"":[60,120]},{""timeMs"":7072,""rectSize"":[50,100]},{""timeMs"":7422,""rectSize"":[60,120]},{""timeMs"":7772,""rectSize"":[50,100]},{""timeMs"":8122,""rectSize"":[60,120]},{""timeMs"":8472,""rectSize"":[50,100]},{""timeMs"":8822,""rectSize"":[60,120]},{""timeMs"":9172,""rectSize"":[50,100]},{""timeMs"":9522,""rectSize"":[60,120]},{""timeMs"":9872,""rectSize"":[50,100]},{""timeMs"":10222,""rectSize"":[60,120]},{""timeMs"":10572,""rectSize"":[50,100]},{""timeMs"":10923,""rectSize"":[60,120]},{""timeMs"":11289,""rectSize"":[50,100]},{""timeMs"":11656,""rectSize"":[60,120]},{""timeMs"":12006,""rectSize"":[50,100]},{""timeMs"":12356,""rectSize"":[60,120]},{""timeMs"":12706,""rectSize"":[50,100]},{""timeMs"":13056,""rectSize"":[60,120]},{""timeMs"":13406,""rectSize"":[50,100]},{""timeMs"":13773,""rectSize"":[60,120]},{""timeMs"":14123,""rectSize"":[50,100]},{""timeMs"":14473,""rectSize"":[60,120]},{""timeMs"":14823,""rectSize"":[50,100]},{""timeMs"":15173,""rectSize"":[60,120]},{""timeMs"":15523,""rectSize"":[50,100]},{""timeMs"":15873,""rectSize"":[60,120]},{""timeMs"":16223,""rectSize"":[50,100]},{""timeMs"":16573,""rectSize"":[60,120]},{""timeMs"":16923,""rectSize"":[50,100]},{""timeMs"":17273,""rectSize"":[60,120]},{""timeMs"":17623,""rectSize"":[50,100]},{""timeMs"":17973,""rectSize"":[60,120]},{""timeMs"":18323,""rectSize"":[50,100]},{""timeMs"":18673,""rectSize"":[60,120]},{""timeMs"":19023,""rectSize"":[50,100]},{""timeMs"":19373,""rectSize"":[60,120]},{""timeMs"":19723,""rectSize"":[50,100]},{""timeMs"":20073,""rectSize"":[60,120]},{""timeMs"":20423,""rectSize"":[50,100]},{""timeMs"":20773,""rectSize"":[60,120]},{""timeMs"":21123,""rectSize"":[50,100]},{""timeMs"":21473,""rectSize"":[60,120]},{""timeMs"":21823,""rectSize"":[50,100]},{""timeMs"":22173,""rectSize"":[60,120]},{""timeMs"":22523,""rectSize"":[50,100]},{""timeMs"":22873,""rectSize"":[60,120]},{""timeMs"":23223,""rectSize"":[50,100]},{""timeMs"":23573,""rectSize"":[60,120]},{""timeMs"":23923,""rectSize"":[50,100]},{""timeMs"":24273,""rectSize"":[60,120]},{""timeMs"":24623,""rectSize"":[50,100]},{""timeMs"":24973,""rectSize"":[60,120]},{""timeMs"":25323,""rectSize"":[50,100]},{""timeMs"":25673,""rectSize"":[60,120]},{""timeMs"":26023,""rectSize"":[50,100]},{""timeMs"":26390,""rectSize"":[60,120]},{""timeMs"":26740,""rectSize"":[50,100]},{""timeMs"":27107,""rectSize"":[60,120]},{""timeMs"":27457,""rectSize"":[50,100]},{""timeMs"":27807,""rectSize"":[60,120]},{""timeMs"":28157,""rectSize"":[50,100]},{""timeMs"":28507,""rectSize"":[60,120]},{""timeMs"":28857,""rectSize"":[50,100]},{""timeMs"":29223,""rectSize"":[60,120]},{""timeMs"":29573,""rectSize"":[50,100]},{""timeMs"":29923,""rectSize"":[60,120]}]","[{""timeMs"":405,""colorHsl"":""hsl(290, 100%, 50%)""},{""timeMs"":806,""colorHsl"":""hsl(210, 100%, 50%)""},{""timeMs"":1222,""colorHsl"":""hsl(290, 100%, 50%)""},{""timeMs"":1622,""colorHsl"":""hsl(210, 100%, 50%)""},{""timeMs"":2022,""colorHsl"":""hsl(290, 100%, 50%)""},{""timeMs"":2422,""colorHsl"":""hsl(210, 100%, 50%)""},{""timeMs"":2822,""colorHsl"":""hsl(290, 100%, 50%)""},{""timeMs"":3222,""colorHsl"":""hsl(210, 100%, 50%)""},{""timeMs"":3622,""colorHsl"":""hsl(290, 100%, 50%)""},{""timeMs"":4022,""colorHsl"":""hsl(210, 100%, 50%)""},{""timeMs"":4422,""colorHsl"":""hsl(290, 100%, 50%)""},{""timeMs"":4822,""colorHsl"":""hsl(210, 100%, 50%)""},{""timeMs"":5222,""colorHsl"":""hsl(290, 100%, 50%)""},{""timeMs"":5622,""colorHsl"":""hsl(210, 100%, 50%)""},{""timeMs"":6022,""colorHsl"":""hsl(290, 100%, 50%)""},{""timeMs"":6422,""colorHsl"":""hsl(210, 100%, 50%)""},{""timeMs"":6822,""colorHsl"":""hsl(290, 100%, 50%)""},{""timeMs"":7222,""colorHsl"":""hsl(210, 100%, 50%)""},{""timeMs"":7622,""colorHsl"":""hsl(290, 100%, 50%)""},{""timeMs"":8039,""colorHsl"":""hsl(210, 100%, 50%)""},{""timeMs"":8456,""colorHsl"":""hsl(290, 100%, 50%)""},{""timeMs"":8856,""colorHsl"":""hsl(210, 100%, 50%)""},{""timeMs"":9272,""colorHsl"":""hsl(290, 100%, 50%)""},{""timeMs"":9672,""colorHsl"":""hsl(210, 100%, 50%)""},{""timeMs"":10072,""colorHsl"":""hsl(290, 100%, 50%)""},{""timeMs"":10472,""colorHsl"":""hsl(210, 100%, 50%)""},{""timeMs"":10872,""colorHsl"":""hsl(290, 100%, 50%)""},{""timeMs"":11272,""colorHsl"":""hsl(210, 100%, 50%)""},{""timeMs"":11672,""colorHsl"":""hsl(290, 100%, 50%)""},{""timeMs"":12073,""colorHsl"":""hsl(210, 100%, 50%)""},{""timeMs"":12473,""colorHsl"":""hsl(290, 100%, 50%)""},{""timeMs"":12889,""colorHsl"":""hsl(210, 100%, 50%)""},{""timeMs"":13289,""colorHsl"":""hsl(290, 100%, 50%)""},{""timeMs"":13689,""colorHsl"":""hsl(210, 100%, 50%)""},{""timeMs"":14089,""colorHsl"":""hsl(290, 100%, 50%)""},{""timeMs"":14506,""colorHsl"":""hsl(210, 100%, 50%)""},{""timeMs"":14906,""colorHsl"":""hsl(290, 100%, 50%)""},{""timeMs"":15323,""colorHsl"":""hsl(210, 100%, 50%)""},{""timeMs"":15723,""colorHsl"":""hsl(290, 100%, 50%)""},{""timeMs"":16123,""colorHsl"":""hsl(210, 100%, 50%)""},{""timeMs"":16523,""colorHsl"":""hsl(290, 100%, 50%)""},{""timeMs"":16939,""colorHsl"":""hsl(210, 100%, 50%)""},{""timeMs"":17356,""colorHsl"":""hsl(290, 100%, 50%)""},{""timeMs"":17773,""colorHsl"":""hsl(210, 100%, 50%)""},{""timeMs"":18173,""colorHsl"":""hsl(290, 100%, 50%)""},{""timeMs"":18573,""colorHsl"":""hsl(210, 100%, 50%)""},{""timeMs"":18973,""colorHsl"":""hsl(290, 100%, 50%)""},{""timeMs"":19373,""colorHsl"":""hsl(210, 100%, 50%)""},{""timeMs"":19773,""colorHsl"":""hsl(290, 100%, 50%)""},{""timeMs"":20173,""colorHsl"":""hsl(210, 100%, 50%)""},{""timeMs"":20573,""colorHsl"":""hsl(290, 100%, 50%)""},{""timeMs"":20990,""colorHsl"":""hsl(210, 100%, 50%)""},{""timeMs"":21406,""colorHsl"":""hsl(290, 100%, 50%)""},{""timeMs"":21806,""colorHsl"":""hsl(210, 100%, 50%)""},{""timeMs"":22223,""colorHsl"":""hsl(290, 100%, 50%)""},{""timeMs"":22623,""colorHsl"":""hsl(210, 100%, 50%)""},{""timeMs"":23023,""colorHsl"":""hsl(290, 100%, 50%)""},{""timeMs"":23423,""colorHsl"":""hsl(210, 100%, 50%)""},{""timeMs"":23823,""colorHsl"":""hsl(290, 100%, 50%)""},{""timeMs"":24223,""colorHsl"":""hsl(210, 100%, 50%)""},{""timeMs"":24623,""colorHsl"":""hsl(290, 100%, 50%)""},{""timeMs"":25023,""colorHsl"":""hsl(210, 100%, 50%)""},{""timeMs"":25423,""colorHsl"":""hsl(290, 100%, 50%)""},{""timeMs"":25840,""colorHsl"":""hsl(210, 100%, 50%)""},{""timeMs"":26240,""colorHsl"":""hsl(290, 100%, 50%)""},{""timeMs"":26656,""colorHsl"":""hsl(210, 100%, 50%)""},{""timeMs"":27057,""colorHsl"":""hsl(290, 100%, 50%)""},{""timeMs"":27457,""colorHsl"":""hsl(210, 100%, 50%)""},{""timeMs"":27857,""colorHsl"":""hsl(290, 100%, 50%)""},{""timeMs"":28257,""colorHsl"":""hsl(210, 100%, 50%)""},{""timeMs"":28673,""colorHsl"":""hsl(290, 100%, 50%)""},{""timeMs"":29073,""colorHsl"":""hsl(210, 100%, 50%)""},{""timeMs"":29473,""colorHsl"":""hsl(290, 100%, 50%)""},{""timeMs"":29873,""colorHsl"":""hsl(210, 100%, 50%)""}]","[{""time_ms"":1294},{""time_ms"":2002},{""time_ms"":2644},{""time_ms"":3267},{""time_ms"":3933},{""time_ms"":4571},{""time_ms"":5254},{""time_ms"":5979},{""time_ms"":6695},{""time_ms"":7400},{""time_ms"":8136},{""time_ms"":8845},{""time_ms"":9589},{""time_ms"":10210},{""time_ms"":10899},{""time_ms"":11594},{""time_ms"":12274},{""time_ms"":12964},{""time_ms"":13625},{""time_ms"":14349},{""time_ms"":14936},{""time_ms"":15758},{""time_ms"":16520},{""time_ms"":17249},{""time_ms"":17934},{""time_ms"":18568},{""time_ms"":19222},{""time_ms"":19898},{""time_ms"":20568},{""time_ms"":21269},{""time_ms"":21905},{""time_ms"":22709},{""time_ms"":23414},{""time_ms"":24066},{""time_ms"":24720},{""time_ms"":25434},{""time_ms"":26193},{""time_ms"":27188},{""time_ms"":27984},{""time_ms"":28721},{""time_ms"":29465}]","30000","size","color-size","30006.6","7",""
"html-keyboard-response","43","388050","0.0-36.0-0.0","male","45","100","p1.1_67456b8ca7f25ce61e1d6ecd","November 30, 2025 at 11:20 AM","November 30, 2025 at 11:33 AM","{""browser"":""Chrome"",""version"":""142""}","null","[""<div class='jspsych-display-element' style='justify-content: center; align-items: center; min-height: 80vh; width: 100%;'><div style='display: inline-block; margin: 0 auto; color: black; font-size: 2.5vh; line-height: 3.2vh; padding: 10px 200px 10px 200px; text-align: left'><p><div style='color: red; display: inline-block;'> <h1>Track Color</h1> </div> changes and <div style='color: red; display: inline-block;'> <h1>ignore Size</h1> </div> changes.</p><p>Press Enter to start the display.</p></div></div>""]","null","attendedFeatureInstr","","","","","","","","","","","","","","","","","","","","",""
"html-keyboard-response","44","389106","0.0-36.0-1.0","male","45","100","p1.1_67456b8ca7f25ce61e1d6ecd","November 30, 2025 at 11:20 AM","November 30, 2025 at 11:33 AM","{""browser"":""Chrome"",""version"":""142""}","1055","[""<div class='jspsych-display-element' style='justify-content: center; align-items: center; min-height: 80vh; width: 100%;'><div style='display: inline-block; margin: 0 auto; color: black; font-size: 2.5vh; line-height: 3.2vh; padding: 10px 200px 10px 200px; text-align: left'><p><div style='color: red; display: inline-block;'> <h1>Track Color</h1> </div> changes and <div style='color: red; display: inline-block;'> <h1>ignore Size</h1> </div> changes.</p><p>Press Enter to start the display.</p></div></div>""]","enter","trialStartWaiting","","","","","","","","","","","","","","","","","","","","",""
"html-keyboard-response","45","390009","0.0-37.0","male","45","100","p1.1_67456b8ca7f25ce61e1d6ecd","November 30, 2025 at 11:20 AM","November 30, 2025 at 11:33 AM","{""browser"":""Chrome"",""version"":""142""}","null","<p style='color: white; font-size: 50px; text-align: center'>+</p>","null","ITI","","","","","","","","","","","","","","","","","","","","",""
