"trial_type","trial_index","time_elapsed","internal_node_id","gender","age","attentionScore","participantID","experimentStartTime","experimentEndTime","browser","rt","stimulus","response","trial_category","mobile","success","sizeTempo","colorTempo","rectBaseSize","sizeChangeRate","sizeChangeAmount","rectChangedSize","baseColor","colorHueChangeAmount","colorHueChangeRate","colorChangedColor","sizeChangeLog","colorChangeLog","keypressLog","displayDurationSet","attendedFeature","testedFeaturePair","displayDurationActualized","trial","value"
"pavlovia","0","2260","0.0-0.0","female","51","100","p1.1_65f684e029d7c63f3338aed7","November 29, 2025 at 1:45 PM","November 29, 2025 at 2:01 PM","{""browser"":""Chrome"",""version"":""142""}","","","","","","","","","","","","","","","","","","","","","","","","",""
"html-button-response","1","8298","0.0-1.0","female","51","100","p1.1_65f684e029d7c63f3338aed7","November 29, 2025 at 1:45 PM","November 29, 2025 at 2:01 PM","{""browser"":""Chrome"",""version"":""142""}","6033","[""<div class='jspsych-display-element' style='justify-content: center; align-items: center; min-height: 80vh; width: 100%;'><div style='display: inline-block; margin: 0 auto; color: black; font-size: 2.5vh; line-height: 3.2vh; padding: 10px 200px 10px 200px; text-align: left'>Please note that this experiment is only designed to work from a computer or laptop.  Please <strong> do not </strong> continue if you are using a phone, tablet, or other mobile device.  If you are on a phone, tablet or other mobile device you will need to return to Prolific and click \""stop without completing\"".  <br> <br> If you are currently seeing this page from a laptop or computer, please click on the \""Continue\"" button.</div></div>""]","0","introInstructions","false","","","","","","","","","","","","","","","","","","","",""
"html-keyboard-response","2","32800","0.0-2.0","female","51","100","p1.1_65f684e029d7c63f3338aed7","November 29, 2025 at 1:45 PM","November 29, 2025 at 2:01 PM","{""browser"":""Chrome"",""version"":""142""}","24500","<div class='jspsych-display-element' style='justify-content: center; align-items: center; min-height: 80vh; width: 100%;'><div style='display: inline-block; margin: 0 auto; color: black; font-size: 2.5vh; line-height: 3.2vh; padding: 10px 200px 10px 200px; text-align: left'>We wanted to provide a heads-up that the end of the experiment will consist of an anonymous survey with multiple questions. A few questions are open-ended questions where you need to type 1-2 sentences. Sometimes participants do not like answering open-ended questions and tend to quit a survey once they see such questions. <br> <br> If a sizable number of people quit a survey halfway, the responses will no longer be useful. Our research depends on good quality responses. Thus, please make sure you do not mind open-ended questions before continuing with experiment.<br> <br> <p><i><strong>Press 'y'</strong> on your keyboard if you agree to answer the open-ended questions at the end of the experiment.</i><br></div></div>","y","introInstructions","","","","","","","","","","","","","","","","","","","","",""
"fullscreen","3","42732","0.0-3.0","female","51","100","p1.1_65f684e029d7c63f3338aed7","November 29, 2025 at 1:45 PM","November 29, 2025 at 2:01 PM","{""browser"":""Chrome"",""version"":""142""}","","","","introInstructions","","true","","","","","","","","","","","","","","","","","","",""
"html-button-response","4","63004","0.0-4.0","female","51","100","p1.1_65f684e029d7c63f3338aed7","November 29, 2025 at 1:45 PM","November 29, 2025 at 2:01 PM","{""browser"":""Chrome"",""version"":""142""}","20269","<div class='jspsych-display-element' style='justify-content: center; align-items: center; min-height: 80vh; width: 100%;'><div style='display: inline-block; margin: 0 auto; color: black; font-size: 2.5vh; line-height: 3.2vh; padding: 10px 200px 10px 200px; text-align: left'>Hello! Thank you for volunteering to help out with our study. Please take a moment to adjust your seating so that you can comfortably watch the monitor and use the keyboard. Feel free to dim the lights as well.<br><br>Close the door or do whatever is necessary to <b>minimize disturbance during the experiment</b>. Please also take a moment to silence your phone so that you are not interrupted by any messages mid-experiment. Do not switch to any other tabs or windows until you are complete.<br><br>We will now go over the instructions. Please read these carefully, as you will not be able to complete this experiment without following them precisely.<br><br>A ""Next"" button will appear at the bottom of the screen on each page. This button will be greyed out at the beginning and will be activated after a few seconds (giving you time to read the instructions on each page). Please read everything on each page carefully before clicking on the ""Next"" button to continue to the next page.</div></div>","0","introInstructions","","","","","","","","","","","","","","","","","","","","",""
"instructionPractice","5","81885","0.0-5.0","female","51","100","p1.1_65f684e029d7c63f3338aed7","November 29, 2025 at 1:45 PM","November 29, 2025 at 2:01 PM","{""browser"":""Chrome"",""version"":""142""}","","","","introInstructions","","","999999","300","[50,100]","1.2","[10,20]","[60,120]","hsl(210, 100%, 50%)","80","2.625","hsl(290, 100%, 50%)","[]","[{""timeMs"":312,""colorHsl"":""hsl(290, 100%, 50%)""},{""timeMs"":628,""colorHsl"":""hsl(210, 100%, 50%)""},{""timeMs"":929,""colorHsl"":""hsl(290, 100%, 50%)""},{""timeMs"":1245,""colorHsl"":""hsl(210, 100%, 50%)""},{""timeMs"":1562,""colorHsl"":""hsl(290, 100%, 50%)""},{""timeMs"":1877,""colorHsl"":""hsl(210, 100%, 50%)""},{""timeMs"":2193,""colorHsl"":""hsl(290, 100%, 50%)""},{""timeMs"":2493,""colorHsl"":""hsl(210, 100%, 50%)""},{""timeMs"":2810,""colorHsl"":""hsl(290, 100%, 50%)""},{""timeMs"":3125,""colorHsl"":""hsl(210, 100%, 50%)""},{""timeMs"":3442,""colorHsl"":""hsl(290, 100%, 50%)""},{""timeMs"":3758,""colorHsl"":""hsl(210, 100%, 50%)""},{""timeMs"":4074,""colorHsl"":""hsl(290, 100%, 50%)""},{""timeMs"":4390,""colorHsl"":""hsl(210, 100%, 50%)""},{""timeMs"":4690,""colorHsl"":""hsl(290, 100%, 50%)""},{""timeMs"":5006,""colorHsl"":""hsl(210, 100%, 50%)""},{""timeMs"":5306,""colorHsl"":""hsl(290, 100%, 50%)""},{""timeMs"":5623,""colorHsl"":""hsl(210, 100%, 50%)""},{""timeMs"":5939,""colorHsl"":""hsl(290, 100%, 50%)""},{""timeMs"":6255,""colorHsl"":""hsl(210, 100%, 50%)""},{""timeMs"":6571,""colorHsl"":""hsl(290, 100%, 50%)""},{""timeMs"":6888,""colorHsl"":""hsl(210, 100%, 50%)""},{""timeMs"":7188,""colorHsl"":""hsl(290, 100%, 50%)""},{""timeMs"":7504,""colorHsl"":""hsl(210, 100%, 50%)""},{""timeMs"":7804,""colorHsl"":""hsl(290, 100%, 50%)""},{""timeMs"":8106,""colorHsl"":""hsl(210, 100%, 50%)""},{""timeMs"":8419,""colorHsl"":""hsl(290, 100%, 50%)""},{""timeMs"":8719,""colorHsl"":""hsl(210, 100%, 50%)""},{""timeMs"":9035,""colorHsl"":""hsl(290, 100%, 50%)""},{""timeMs"":9352,""colorHsl"":""hsl(210, 100%, 50%)""},{""timeMs"":9668,""colorHsl"":""hsl(290, 100%, 50%)""},{""timeMs"":9969,""colorHsl"":""hsl(210, 100%, 50%)""},{""timeMs"":10284,""colorHsl"":""hsl(290, 100%, 50%)""},{""timeMs"":10600,""colorHsl"":""hsl(210, 100%, 50%)""},{""timeMs"":10900,""colorHsl"":""hsl(290, 100%, 50%)""},{""timeMs"":11200,""colorHsl"":""hsl(210, 100%, 50%)""},{""timeMs"":11516,""colorHsl"":""hsl(290, 100%, 50%)""},{""timeMs"":11832,""colorHsl"":""hsl(210, 100%, 50%)""},{""timeMs"":12148,""colorHsl"":""hsl(290, 100%, 50%)""},{""timeMs"":12448,""colorHsl"":""hsl(210, 100%, 50%)""},{""timeMs"":12765,""colorHsl"":""hsl(290, 100%, 50%)""},{""timeMs"":13081,""colorHsl"":""hsl(210, 100%, 50%)""},{""timeMs"":13397,""colorHsl"":""hsl(290, 100%, 50%)""},{""timeMs"":13713,""colorHsl"":""hsl(210, 100%, 50%)""},{""timeMs"":14013,""colorHsl"":""hsl(290, 100%, 50%)""},{""timeMs"":14330,""colorHsl"":""hsl(210, 100%, 50%)""},{""timeMs"":14645,""colorHsl"":""hsl(290, 100%, 50%)""},{""timeMs"":14946,""colorHsl"":""hsl(210, 100%, 50%)""},{""timeMs"":15262,""colorHsl"":""hsl(290, 100%, 50%)""},{""timeMs"":15577,""colorHsl"":""hsl(210, 100%, 50%)""},{""timeMs"":15878,""colorHsl"":""hsl(290, 100%, 50%)""},{""timeMs"":16194,""colorHsl"":""hsl(210, 100%, 50%)""},{""timeMs"":16510,""colorHsl"":""hsl(290, 100%, 50%)""},{""timeMs"":16810,""colorHsl"":""hsl(210, 100%, 50%)""},{""timeMs"":17126,""colorHsl"":""hsl(290, 100%, 50%)""},{""timeMs"":17444,""colorHsl"":""hsl(210, 100%, 50%)""},{""timeMs"":17760,""colorHsl"":""hsl(290, 100%, 50%)""},{""timeMs"":18075,""colorHsl"":""hsl(210, 100%, 50%)""},{""timeMs"":18391,""colorHsl"":""hsl(290, 100%, 50%)""}]","[]","5000","","","","",""
"instructionPractice","6","88236","0.0-6.0","female","51","100","p1.1_65f684e029d7c63f3338aed7","November 29, 2025 at 1:45 PM","November 29, 2025 at 2:01 PM","{""browser"":""Chrome"",""version"":""142""}","","","","introInstructions","","","300","999999","[50,100]","1.2","[10,20]","[60,120]","hsl(210, 100%, 50%)","80","2.625","hsl(290, 100%, 50%)","[{""timeMs"":307,""rectSize"":[60,120]},{""timeMs"":622,""rectSize"":[50,100]},{""timeMs"":939,""rectSize"":[60,120]},{""timeMs"":1254,""rectSize"":[50,100]},{""timeMs"":1556,""rectSize"":[60,120]},{""timeMs"":1871,""rectSize"":[50,100]},{""timeMs"":2189,""rectSize"":[60,120]},{""timeMs"":2504,""rectSize"":[50,100]},{""timeMs"":2820,""rectSize"":[60,120]},{""timeMs"":3136,""rectSize"":[50,100]},{""timeMs"":3437,""rectSize"":[60,120]},{""timeMs"":3753,""rectSize"":[50,100]},{""timeMs"":4069,""rectSize"":[60,120]},{""timeMs"":4386,""rectSize"":[50,100]},{""timeMs"":4703,""rectSize"":[60,120]},{""timeMs"":5019,""rectSize"":[50,100]},{""timeMs"":5333,""rectSize"":[60,120]},{""timeMs"":5633,""rectSize"":[50,100]},{""timeMs"":5934,""rectSize"":[60,120]},{""timeMs"":6234,""rectSize"":[50,100]}]","[]","[]","5000","","","","",""
"html-button-response","7","95921","0.0-7.0","female","51","100","p1.1_65f684e029d7c63f3338aed7","November 29, 2025 at 1:45 PM","November 29, 2025 at 2:01 PM","{""browser"":""Chrome"",""version"":""142""}","7683","<div class='jspsych-display-element' style='justify-content: center; align-items: center; min-height: 80vh; width: 100%;'><div style='display: inline-block; margin: 0 auto; color: black; font-size: 2.5vh; line-height: 3.2vh; padding: 10px 200px 10px 200px; text-align: left'>In the examples so far, the rectangle alternated only one feature at a time (either its color or its size) rhythmically. In the actual experiment, both the color and the size will alternate together.<br><br>Let's see an example of this on the next page.</div></div>","0","introInstructions","","","","","","","","","","","","","","","","","","","","",""
"rhytmicFeatureChangeTask","8","104342","0.0-8.0","female","51","100","p1.1_65f684e029d7c63f3338aed7","November 29, 2025 at 1:45 PM","November 29, 2025 at 2:01 PM","{""browser"":""Chrome"",""version"":""142""}","","","","introInstructions","","","320","280","[50,100]","1.2","[10,20]","[60,120]","hsl(210, 100%, 50%)","80","2.625","hsl(290, 100%, 50%)","[{""timeMs"":334,""rectSize"":[60,120]},{""timeMs"":667,""rectSize"":[50,100]},{""timeMs"":1000,""rectSize"":[60,120]},{""timeMs"":1333,""rectSize"":[50,100]},{""timeMs"":1665,""rectSize"":[60,120]},{""timeMs"":1998,""rectSize"":[50,100]},{""timeMs"":2332,""rectSize"":[60,120]},{""timeMs"":2664,""rectSize"":[50,100]},{""timeMs"":2997,""rectSize"":[60,120]},{""timeMs"":3331,""rectSize"":[50,100]},{""timeMs"":3663,""rectSize"":[60,120]},{""timeMs"":3996,""rectSize"":[50,100]},{""timeMs"":4329,""rectSize"":[60,120]},{""timeMs"":4662,""rectSize"":[50,100]},{""timeMs"":4995,""rectSize"":[60,120]},{""timeMs"":5328,""rectSize"":[50,100]},{""timeMs"":5661,""rectSize"":[60,120]},{""timeMs"":5994,""rectSize"":[50,100]},{""timeMs"":6327,""rectSize"":[60,120]},{""timeMs"":6660,""rectSize"":[50,100]},{""timeMs"":6993,""rectSize"":[60,120]},{""timeMs"":7326,""rectSize"":[50,100]},{""timeMs"":7659,""rectSize"":[60,120]},{""timeMs"":7992,""rectSize"":[50,100]}]","[{""timeMs"":284,""colorHsl"":""hsl(290, 100%, 50%)""},{""timeMs"":567,""colorHsl"":""hsl(210, 100%, 50%)""},{""timeMs"":850,""colorHsl"":""hsl(290, 100%, 50%)""},{""timeMs"":1137,""colorHsl"":""hsl(210, 100%, 50%)""},{""timeMs"":1432,""colorHsl"":""hsl(290, 100%, 50%)""},{""timeMs"":1716,""colorHsl"":""hsl(210, 100%, 50%)""},{""timeMs"":1998,""colorHsl"":""hsl(290, 100%, 50%)""},{""timeMs"":2281,""colorHsl"":""hsl(210, 100%, 50%)""},{""timeMs"":2565,""colorHsl"":""hsl(290, 100%, 50%)""},{""timeMs"":2847,""colorHsl"":""hsl(210, 100%, 50%)""},{""timeMs"":3131,""colorHsl"":""hsl(290, 100%, 50%)""},{""timeMs"":3413,""colorHsl"":""hsl(210, 100%, 50%)""},{""timeMs"":3696,""colorHsl"":""hsl(290, 100%, 50%)""},{""timeMs"":3979,""colorHsl"":""hsl(210, 100%, 50%)""},{""timeMs"":4263,""colorHsl"":""hsl(290, 100%, 50%)""},{""timeMs"":4546,""colorHsl"":""hsl(210, 100%, 50%)""},{""timeMs"":4829,""colorHsl"":""hsl(290, 100%, 50%)""},{""timeMs"":5112,""colorHsl"":""hsl(210, 100%, 50%)""},{""timeMs"":5395,""colorHsl"":""hsl(290, 100%, 50%)""},{""timeMs"":5677,""colorHsl"":""hsl(210, 100%, 50%)""},{""timeMs"":5960,""colorHsl"":""hsl(290, 100%, 50%)""},{""timeMs"":6244,""colorHsl"":""hsl(210, 100%, 50%)""},{""timeMs"":6527,""colorHsl"":""hsl(290, 100%, 50%)""},{""timeMs"":6811,""colorHsl"":""hsl(210, 100%, 50%)""},{""timeMs"":7093,""colorHsl"":""hsl(290, 100%, 50%)""},{""timeMs"":7376,""colorHsl"":""hsl(210, 100%, 50%)""},{""timeMs"":7659,""colorHsl"":""hsl(290, 100%, 50%)""},{""timeMs"":7944,""colorHsl"":""hsl(210, 100%, 50%)""}]","[]","8000","color","color-size","8007.5","",""
"html-button-response","9","131374","0.0-9.0","female","51","100","p1.1_65f684e029d7c63f3338aed7","November 29, 2025 at 1:45 PM","November 29, 2025 at 2:01 PM","{""browser"":""Chrome"",""version"":""142""}","27029","<div class='jspsych-display-element' style='justify-content: center; align-items: center; min-height: 80vh; width: 100%;'><div style='display: inline-block; margin: 0 auto; color: black; font-size: 2.5vh; line-height: 3.2vh; padding: 10px 200px 10px 200px; text-align: left'>At the beginning of each display, you will be told which feature (color or size) to pay attention to. That is the feature you must keep track of (that feature's rhytmic changes). Whenever the instructed feature changes, you should respond by pressing the Space key. You must try to ignore the other feature, even though it may also be changing at the same time.<br><br>If you are instructed to pay attention to the color, you should press the Space key every time the rectangle changes to purple, and you should try to ignore any size changes throughout the whole display. If you are instructed to pay attention to the size, you should press the Space key every time the rectangle grows larger, and you should try to ignore color changes.<br><br>Because the alternations can be quite fast, you should try to press the Space key as quickly as possible when the relevant change occurs.<br><br>Let's practice first with the color feature.</div></div>","0","instructions","","","","","","","","","","","","","","","","","","","","",""
"html-button-response","10","156631","0.0-10.0","female","51","100","p1.1_65f684e029d7c63f3338aed7","November 29, 2025 at 1:45 PM","November 29, 2025 at 2:01 PM","{""browser"":""Chrome"",""version"":""142""}","24842","<div class='jspsych-display-element' style='justify-content: center; align-items: center; min-height: 80vh; width: 100%;'><div style='display: inline-block; margin: 0 auto; color: black; font-size: 2.5vh; line-height: 3.2vh; padding: 10px 200px 10px 200px; text-align: left'>Pay attention to the <b>Color</b> change (press the Space key everytime the rectangle turns purple as soon as possible) and ignore the <b>Size</b> change.<br><br>Click on the 'Start' button to start the display. Since the display will start immediately,you should be ready to press the 'Space' key as soon as the rectangle starts alternating its color.</div></div>","0","introInstructions","","","","","","","","","","","","","","","","","","","","",""
"rhytmicFeatureChangeTask","11","177041","0.0-11.0","female","51","100","p1.1_65f684e029d7c63f3338aed7","November 29, 2025 at 1:45 PM","November 29, 2025 at 2:01 PM","{""browser"":""Chrome"",""version"":""142""}","","","","introInstructions","","","500","700","[50,100]","1.2","[10,20]","[60,120]","hsl(210, 100%, 50%)","80","2.625","hsl(290, 100%, 50%)","[{""timeMs"":509,""rectSize"":[60,120]},{""timeMs"":1024,""rectSize"":[50,100]},{""timeMs"":1540,""rectSize"":[60,120]},{""timeMs"":2040,""rectSize"":[50,100]},{""timeMs"":2555,""rectSize"":[60,120]},{""timeMs"":3072,""rectSize"":[50,100]},{""timeMs"":3573,""rectSize"":[60,120]},{""timeMs"":4087,""rectSize"":[50,100]},{""timeMs"":4603,""rectSize"":[60,120]},{""timeMs"":5119,""rectSize"":[50,100]},{""timeMs"":5635,""rectSize"":[60,120]},{""timeMs"":6152,""rectSize"":[50,100]},{""timeMs"":6667,""rectSize"":[60,120]},{""timeMs"":7183,""rectSize"":[50,100]},{""timeMs"":7700,""rectSize"":[60,120]},{""timeMs"":8215,""rectSize"":[50,100]},{""timeMs"":8731,""rectSize"":[60,120]},{""timeMs"":9231,""rectSize"":[50,100]},{""timeMs"":9747,""rectSize"":[60,120]},{""timeMs"":10263,""rectSize"":[50,100]},{""timeMs"":10779,""rectSize"":[60,120]},{""timeMs"":11280,""rectSize"":[50,100]},{""timeMs"":11795,""rectSize"":[60,120]},{""timeMs"":12311,""rectSize"":[50,100]},{""timeMs"":12827,""rectSize"":[60,120]},{""timeMs"":13343,""rectSize"":[50,100]},{""timeMs"":13860,""rectSize"":[60,120]},{""timeMs"":14375,""rectSize"":[50,100]},{""timeMs"":14891,""rectSize"":[60,120]},{""timeMs"":15407,""rectSize"":[50,100]},{""timeMs"":15923,""rectSize"":[60,120]},{""timeMs"":16440,""rectSize"":[50,100]},{""timeMs"":16956,""rectSize"":[60,120]},{""timeMs"":17472,""rectSize"":[50,100]},{""timeMs"":17988,""rectSize"":[60,120]},{""timeMs"":18505,""rectSize"":[50,100]},{""timeMs"":19020,""rectSize"":[60,120]},{""timeMs"":19536,""rectSize"":[50,100]}]","[{""timeMs"":707,""colorHsl"":""hsl(290, 100%, 50%)""},{""timeMs"":1424,""colorHsl"":""hsl(210, 100%, 50%)""},{""timeMs"":2140,""colorHsl"":""hsl(290, 100%, 50%)""},{""timeMs"":2855,""colorHsl"":""hsl(210, 100%, 50%)""},{""timeMs"":3573,""colorHsl"":""hsl(290, 100%, 50%)""},{""timeMs"":4287,""colorHsl"":""hsl(210, 100%, 50%)""},{""timeMs"":5003,""colorHsl"":""hsl(290, 100%, 50%)""},{""timeMs"":5719,""colorHsl"":""hsl(210, 100%, 50%)""},{""timeMs"":6434,""colorHsl"":""hsl(290, 100%, 50%)""},{""timeMs"":7151,""colorHsl"":""hsl(210, 100%, 50%)""},{""timeMs"":7866,""colorHsl"":""hsl(290, 100%, 50%)""},{""timeMs"":8582,""colorHsl"":""hsl(210, 100%, 50%)""},{""timeMs"":9298,""colorHsl"":""hsl(290, 100%, 50%)""},{""timeMs"":10014,""colorHsl"":""hsl(210, 100%, 50%)""},{""timeMs"":10730,""colorHsl"":""hsl(290, 100%, 50%)""},{""timeMs"":11445,""colorHsl"":""hsl(210, 100%, 50%)""},{""timeMs"":12146,""colorHsl"":""hsl(290, 100%, 50%)""},{""timeMs"":12860,""colorHsl"":""hsl(210, 100%, 50%)""},{""timeMs"":13577,""colorHsl"":""hsl(290, 100%, 50%)""},{""timeMs"":14292,""colorHsl"":""hsl(210, 100%, 50%)""},{""timeMs"":15008,""colorHsl"":""hsl(290, 100%, 50%)""},{""timeMs"":15723,""colorHsl"":""hsl(210, 100%, 50%)""},{""timeMs"":16440,""colorHsl"":""hsl(290, 100%, 50%)""},{""timeMs"":17155,""colorHsl"":""hsl(210, 100%, 50%)""},{""timeMs"":17871,""colorHsl"":""hsl(290, 100%, 50%)""},{""timeMs"":18587,""colorHsl"":""hsl(210, 100%, 50%)""},{""timeMs"":19303,""colorHsl"":""hsl(290, 100%, 50%)""}]","[{""time_ms"":1585},{""time_ms"":2525},{""time_ms"":3049},{""time_ms"":3881},{""time_ms"":5393},{""time_ms"":6790},{""time_ms"":8177},{""time_ms"":9829},{""time_ms"":11087},{""time_ms"":12434},{""time_ms"":14052},{""time_ms"":15383},{""time_ms"":16862},{""time_ms"":17881},{""time_ms"":19579}]","20000","color","color-size","20002","",""
"html-button-response","12","181297","0.0-12.0","female","51","100","p1.1_65f684e029d7c63f3338aed7","November 29, 2025 at 1:45 PM","November 29, 2025 at 2:01 PM","{""browser"":""Chrome"",""version"":""142""}","4253","<div class='jspsych-display-element' style='justify-content: center; align-items: center; min-height: 80vh; width: 100%;'><div style='display: inline-block; margin: 0 auto; color: black; font-size: 2.5vh; line-height: 3.2vh; padding: 10px 200px 10px 200px; text-align: left'>Pay attention to the <b>Size</b> change (press the Space key everytime the rectangle grows larger as soon as possible) and ignore the <b>Color</b> change.<br><br>Click on the 'Start' button to start the display.</div></div>","0","introInstructions","","","","","","","","","","","","","","","","","","","","",""
"rhytmicFeatureChangeTask","13","201712","0.0-13.0","female","51","100","p1.1_65f684e029d7c63f3338aed7","November 29, 2025 at 1:45 PM","November 29, 2025 at 2:01 PM","{""browser"":""Chrome"",""version"":""142""}","","","","introInstructions","","","700","500","[50,100]","1.2","[10,20]","[60,120]","hsl(210, 100%, 50%)","80","2.625","hsl(290, 100%, 50%)","[{""timeMs"":710,""rectSize"":[60,120]},{""timeMs"":1426,""rectSize"":[50,100]},{""timeMs"":2128,""rectSize"":[60,120]},{""timeMs"":2841,""rectSize"":[50,100]},{""timeMs"":3557,""rectSize"":[60,120]},{""timeMs"":4272,""rectSize"":[50,100]},{""timeMs"":4972,""rectSize"":[60,120]},{""timeMs"":5688,""rectSize"":[50,100]},{""timeMs"":6404,""rectSize"":[60,120]},{""timeMs"":7119,""rectSize"":[50,100]},{""timeMs"":7835,""rectSize"":[60,120]},{""timeMs"":8551,""rectSize"":[50,100]},{""timeMs"":9268,""rectSize"":[60,120]},{""timeMs"":9983,""rectSize"":[50,100]},{""timeMs"":10699,""rectSize"":[60,120]},{""timeMs"":11414,""rectSize"":[50,100]},{""timeMs"":12130,""rectSize"":[60,120]},{""timeMs"":12846,""rectSize"":[50,100]},{""timeMs"":13562,""rectSize"":[60,120]},{""timeMs"":14278,""rectSize"":[50,100]},{""timeMs"":14993,""rectSize"":[60,120]},{""timeMs"":15709,""rectSize"":[50,100]},{""timeMs"":16425,""rectSize"":[60,120]},{""timeMs"":17125,""rectSize"":[50,100]},{""timeMs"":17840,""rectSize"":[60,120]},{""timeMs"":18557,""rectSize"":[50,100]},{""timeMs"":19272,""rectSize"":[60,120]},{""timeMs"":19988,""rectSize"":[50,100]}]","[{""timeMs"":511,""colorHsl"":""hsl(290, 100%, 50%)""},{""timeMs"":1027,""colorHsl"":""hsl(210, 100%, 50%)""},{""timeMs"":1543,""colorHsl"":""hsl(290, 100%, 50%)""},{""timeMs"":2059,""colorHsl"":""hsl(210, 100%, 50%)""},{""timeMs"":2575,""colorHsl"":""hsl(290, 100%, 50%)""},{""timeMs"":3090,""colorHsl"":""hsl(210, 100%, 50%)""},{""timeMs"":3591,""colorHsl"":""hsl(290, 100%, 50%)""},{""timeMs"":4106,""colorHsl"":""hsl(210, 100%, 50%)""},{""timeMs"":4622,""colorHsl"":""hsl(290, 100%, 50%)""},{""timeMs"":5140,""colorHsl"":""hsl(210, 100%, 50%)""},{""timeMs"":5654,""colorHsl"":""hsl(290, 100%, 50%)""},{""timeMs"":6156,""colorHsl"":""hsl(210, 100%, 50%)""},{""timeMs"":6670,""colorHsl"":""hsl(290, 100%, 50%)""},{""timeMs"":7186,""colorHsl"":""hsl(210, 100%, 50%)""},{""timeMs"":7702,""colorHsl"":""hsl(290, 100%, 50%)""},{""timeMs"":8218,""colorHsl"":""hsl(210, 100%, 50%)""},{""timeMs"":8734,""colorHsl"":""hsl(290, 100%, 50%)""},{""timeMs"":9250,""colorHsl"":""hsl(210, 100%, 50%)""},{""timeMs"":9766,""colorHsl"":""hsl(290, 100%, 50%)""},{""timeMs"":10282,""colorHsl"":""hsl(210, 100%, 50%)""},{""timeMs"":10798,""colorHsl"":""hsl(290, 100%, 50%)""},{""timeMs"":11315,""colorHsl"":""hsl(210, 100%, 50%)""},{""timeMs"":11831,""colorHsl"":""hsl(290, 100%, 50%)""},{""timeMs"":12346,""colorHsl"":""hsl(210, 100%, 50%)""},{""timeMs"":12846,""colorHsl"":""hsl(290, 100%, 50%)""},{""timeMs"":13362,""colorHsl"":""hsl(210, 100%, 50%)""},{""timeMs"":13862,""colorHsl"":""hsl(290, 100%, 50%)""},{""timeMs"":14377,""colorHsl"":""hsl(210, 100%, 50%)""},{""timeMs"":14894,""colorHsl"":""hsl(290, 100%, 50%)""},{""timeMs"":15410,""colorHsl"":""hsl(210, 100%, 50%)""},{""timeMs"":15926,""colorHsl"":""hsl(290, 100%, 50%)""},{""timeMs"":16442,""colorHsl"":""hsl(210, 100%, 50%)""},{""timeMs"":16958,""colorHsl"":""hsl(290, 100%, 50%)""},{""timeMs"":17474,""colorHsl"":""hsl(210, 100%, 50%)""},{""timeMs"":17990,""colorHsl"":""hsl(290, 100%, 50%)""},{""timeMs"":18506,""colorHsl"":""hsl(210, 100%, 50%)""},{""timeMs"":19022,""colorHsl"":""hsl(290, 100%, 50%)""},{""timeMs"":19522,""colorHsl"":""hsl(210, 100%, 50%)""}]","[{""time_ms"":1149},{""time_ms"":2517},{""time_ms"":3954},{""time_ms"":5253},{""time_ms"":6833},{""time_ms"":8191},{""time_ms"":9896},{""time_ms"":11028},{""time_ms"":12520},{""time_ms"":13872},{""time_ms"":15218},{""time_ms"":16771},{""time_ms"":18233},{""time_ms"":19618}]","20000","size","color-size","20004.2","",""
"html-button-response","14","213700","0.0-14.0","female","51","100","p1.1_65f684e029d7c63f3338aed7","November 29, 2025 at 1:45 PM","November 29, 2025 at 2:01 PM","{""browser"":""Chrome"",""version"":""142""}","11985","<div class='jspsych-display-element' style='justify-content: center; align-items: center; min-height: 80vh; width: 100%;'><div style='display: inline-block; margin: 0 auto; color: black; font-size: 2.5vh; line-height: 3.2vh; padding: 10px 200px 10px 200px; text-align: left'>That's it. You will just do this same task for about 10 minutes. The rhythm of alternation will vary from one display to the next. Sometimes the color alternation will be faster than the size alternation, sometimes the size will be faster than the color.<br><br>Regardless of these variations, your task remains the same. If you are asked to pay attention to the color, press the Space key everytime the rectangle changes to purple as soon as possible and ignore the size changes. If you are asked to pay attention to the size, press the Space key everytime the rectangle grows larger as soon as possible and ignore the color changes.<br><br>You may find it difficult at times to ignore the other feature, and that is completely normal. The experiment is designed to be challenging in this way. Please do your best to stay focused for the whole task, as your responses are only useful if you give your full attention to the instructed feature.<br><br>Please always use your dominant hand to press the 'Space' key. You can now start the experiment when you are ready.</div></div>","0","introInstructions","","","","","","","","","","","","","","","","","","","","",""
"html-keyboard-response","15","214523","0.0-15.0-0.0","female","51","100","p1.1_65f684e029d7c63f3338aed7","November 29, 2025 at 1:45 PM","November 29, 2025 at 2:01 PM","{""browser"":""Chrome"",""version"":""142""}","null","[""<div class='jspsych-display-element' style='justify-content: center; align-items: center; min-height: 80vh; width: 100%;'><div style='display: inline-block; margin: 0 auto; color: black; font-size: 2.5vh; line-height: 3.2vh; padding: 10px 200px 10px 200px; text-align: left'><p><div style='color: red; display: inline-block;'> <h1>Track Size</h1> </div> changes and <div style='color: red; display: inline-block;'> <h1>ignore Color</h1> </div> changes.</p><p>Press Enter to start the display.</p></div></div>""]","null","attendedFeatureInstr","","","","","","","","","","","","","","","","","","","","",""
"html-keyboard-response","16","218071","0.0-15.0-1.0","female","51","100","p1.1_65f684e029d7c63f3338aed7","November 29, 2025 at 1:45 PM","November 29, 2025 at 2:01 PM","{""browser"":""Chrome"",""version"":""142""}","3547","[""<div class='jspsych-display-element' style='justify-content: center; align-items: center; min-height: 80vh; width: 100%;'><div style='display: inline-block; margin: 0 auto; color: black; font-size: 2.5vh; line-height: 3.2vh; padding: 10px 200px 10px 200px; text-align: left'><p><div style='color: red; display: inline-block;'> <h1>Track Size</h1> </div> changes and <div style='color: red; display: inline-block;'> <h1>ignore Color</h1> </div> changes.</p><p>Press Enter to start the display.</p></div></div>""]","enter","trialStartWaiting","","","","","","","","","","","","","","","","","","","","",""
"html-keyboard-response","17","218933","0.0-16.0","female","51","100","p1.1_65f684e029d7c63f3338aed7","November 29, 2025 at 1:45 PM","November 29, 2025 at 2:01 PM","{""browser"":""Chrome"",""version"":""142""}","null","<p style='color: white; font-size: 50px; text-align: center'>+</p>","null","ITI","","","","","","","","","","","","","","","","","","","","",""
"rhytmicFeatureChangeTask","18","248940","0.0-17.0","female","51","100","p1.1_65f684e029d7c63f3338aed7","November 29, 2025 at 1:45 PM","November 29, 2025 at 2:01 PM","{""browser"":""Chrome"",""version"":""142""}","","","","test","","","350","400","[50,100]","1.2","[10,20]","[60,120]","hsl(210, 100%, 50%)","80","2.625","hsl(290, 100%, 50%)","[{""timeMs"":357,""rectSize"":[60,120]},{""timeMs"":723,""rectSize"":[50,100]},{""timeMs"":1088,""rectSize"":[60,120]},{""timeMs"":1438,""rectSize"":[50,100]},{""timeMs"":1788,""rectSize"":[60,120]},{""timeMs"":2139,""rectSize"":[50,100]},{""timeMs"":2505,""rectSize"":[60,120]},{""timeMs"":2870,""rectSize"":[50,100]},{""timeMs"":3220,""rectSize"":[60,120]},{""timeMs"":3585,""rectSize"":[50,100]},{""timeMs"":3952,""rectSize"":[60,120]},{""timeMs"":4318,""rectSize"":[50,100]},{""timeMs"":4669,""rectSize"":[60,120]},{""timeMs"":5035,""rectSize"":[50,100]},{""timeMs"":5401,""rectSize"":[60,120]},{""timeMs"":5767,""rectSize"":[50,100]},{""timeMs"":6117,""rectSize"":[60,120]},{""timeMs"":6484,""rectSize"":[50,100]},{""timeMs"":6849,""rectSize"":[60,120]},{""timeMs"":7214,""rectSize"":[50,100]},{""timeMs"":7565,""rectSize"":[60,120]},{""timeMs"":7931,""rectSize"":[50,100]},{""timeMs"":8297,""rectSize"":[60,120]},{""timeMs"":8647,""rectSize"":[50,100]},{""timeMs"":9013,""rectSize"":[60,120]},{""timeMs"":9363,""rectSize"":[50,100]},{""timeMs"":9729,""rectSize"":[60,120]},{""timeMs"":10096,""rectSize"":[50,100]},{""timeMs"":10462,""rectSize"":[60,120]},{""timeMs"":10828,""rectSize"":[50,100]},{""timeMs"":11193,""rectSize"":[60,120]},{""timeMs"":11560,""rectSize"":[50,100]},{""timeMs"":11926,""rectSize"":[60,120]},{""timeMs"":12276,""rectSize"":[50,100]},{""timeMs"":12642,""rectSize"":[60,120]},{""timeMs"":13009,""rectSize"":[50,100]},{""timeMs"":13374,""rectSize"":[60,120]},{""timeMs"":13741,""rectSize"":[50,100]},{""timeMs"":14092,""rectSize"":[60,120]},{""timeMs"":14457,""rectSize"":[50,100]},{""timeMs"":14823,""rectSize"":[60,120]},{""timeMs"":15189,""rectSize"":[50,100]},{""timeMs"":15555,""rectSize"":[60,120]},{""timeMs"":15922,""rectSize"":[50,100]},{""timeMs"":16288,""rectSize"":[60,120]},{""timeMs"":16654,""rectSize"":[50,100]},{""timeMs"":17020,""rectSize"":[60,120]},{""timeMs"":17387,""rectSize"":[50,100]},{""timeMs"":17753,""rectSize"":[60,120]},{""timeMs"":18120,""rectSize"":[50,100]},{""timeMs"":18485,""rectSize"":[60,120]},{""timeMs"":18835,""rectSize"":[50,100]},{""timeMs"":19201,""rectSize"":[60,120]},{""timeMs"":19568,""rectSize"":[50,100]},{""timeMs"":19934,""rectSize"":[60,120]},{""timeMs"":20299,""rectSize"":[50,100]},{""timeMs"":20650,""rectSize"":[60,120]},{""timeMs"":21016,""rectSize"":[50,100]},{""timeMs"":21382,""rectSize"":[60,120]},{""timeMs"":21748,""rectSize"":[50,100]},{""timeMs"":22114,""rectSize"":[60,120]},{""timeMs"":22464,""rectSize"":[50,100]},{""timeMs"":22831,""rectSize"":[60,120]},{""timeMs"":23197,""rectSize"":[50,100]},{""timeMs"":23563,""rectSize"":[60,120]},{""timeMs"":23929,""rectSize"":[50,100]},{""timeMs"":24295,""rectSize"":[60,120]},{""timeMs"":24645,""rectSize"":[50,100]},{""timeMs"":25011,""rectSize"":[60,120]},{""timeMs"":25361,""rectSize"":[50,100]},{""timeMs"":25727,""rectSize"":[60,120]},{""timeMs"":26078,""rectSize"":[50,100]},{""timeMs"":26443,""rectSize"":[60,120]},{""timeMs"":26793,""rectSize"":[50,100]},{""timeMs"":27158,""rectSize"":[60,120]},{""timeMs"":27524,""rectSize"":[50,100]},{""timeMs"":27875,""rectSize"":[60,120]},{""timeMs"":28240,""rectSize"":[50,100]},{""timeMs"":28590,""rectSize"":[60,120]},{""timeMs"":28957,""rectSize"":[50,100]},{""timeMs"":29322,""rectSize"":[60,120]},{""timeMs"":29673,""rectSize"":[50,100]}]","[{""timeMs"":406,""colorHsl"":""hsl(290, 100%, 50%)""},{""timeMs"":806,""colorHsl"":""hsl(210, 100%, 50%)""},{""timeMs"":1222,""colorHsl"":""hsl(290, 100%, 50%)""},{""timeMs"":1638,""colorHsl"":""hsl(210, 100%, 50%)""},{""timeMs"":2038,""colorHsl"":""hsl(290, 100%, 50%)""},{""timeMs"":2454,""colorHsl"":""hsl(210, 100%, 50%)""},{""timeMs"":2870,""colorHsl"":""hsl(290, 100%, 50%)""},{""timeMs"":3286,""colorHsl"":""hsl(210, 100%, 50%)""},{""timeMs"":3703,""colorHsl"":""hsl(290, 100%, 50%)""},{""timeMs"":4119,""colorHsl"":""hsl(210, 100%, 50%)""},{""timeMs"":4535,""colorHsl"":""hsl(290, 100%, 50%)""},{""timeMs"":4951,""colorHsl"":""hsl(210, 100%, 50%)""},{""timeMs"":5351,""colorHsl"":""hsl(290, 100%, 50%)""},{""timeMs"":5767,""colorHsl"":""hsl(210, 100%, 50%)""},{""timeMs"":6168,""colorHsl"":""hsl(290, 100%, 50%)""},{""timeMs"":6583,""colorHsl"":""hsl(210, 100%, 50%)""},{""timeMs"":6999,""colorHsl"":""hsl(290, 100%, 50%)""},{""timeMs"":7414,""colorHsl"":""hsl(210, 100%, 50%)""},{""timeMs"":7831,""colorHsl"":""hsl(290, 100%, 50%)""},{""timeMs"":8247,""colorHsl"":""hsl(210, 100%, 50%)""},{""timeMs"":8647,""colorHsl"":""hsl(290, 100%, 50%)""},{""timeMs"":9063,""colorHsl"":""hsl(210, 100%, 50%)""},{""timeMs"":9479,""colorHsl"":""hsl(290, 100%, 50%)""},{""timeMs"":9895,""colorHsl"":""hsl(210, 100%, 50%)""},{""timeMs"":10311,""colorHsl"":""hsl(290, 100%, 50%)""},{""timeMs"":10712,""colorHsl"":""hsl(210, 100%, 50%)""},{""timeMs"":11127,""colorHsl"":""hsl(290, 100%, 50%)""},{""timeMs"":11543,""colorHsl"":""hsl(210, 100%, 50%)""},{""timeMs"":11959,""colorHsl"":""hsl(290, 100%, 50%)""},{""timeMs"":12375,""colorHsl"":""hsl(210, 100%, 50%)""},{""timeMs"":12775,""colorHsl"":""hsl(290, 100%, 50%)""},{""timeMs"":13191,""colorHsl"":""hsl(210, 100%, 50%)""},{""timeMs"":13591,""colorHsl"":""hsl(290, 100%, 50%)""},{""timeMs"":14007,""colorHsl"":""hsl(210, 100%, 50%)""},{""timeMs"":14423,""colorHsl"":""hsl(290, 100%, 50%)""},{""timeMs"":14840,""colorHsl"":""hsl(210, 100%, 50%)""},{""timeMs"":15255,""colorHsl"":""hsl(290, 100%, 50%)""},{""timeMs"":15656,""colorHsl"":""hsl(210, 100%, 50%)""},{""timeMs"":16071,""colorHsl"":""hsl(290, 100%, 50%)""},{""timeMs"":16471,""colorHsl"":""hsl(210, 100%, 50%)""},{""timeMs"":16887,""colorHsl"":""hsl(290, 100%, 50%)""},{""timeMs"":17287,""colorHsl"":""hsl(210, 100%, 50%)""},{""timeMs"":17687,""colorHsl"":""hsl(290, 100%, 50%)""},{""timeMs"":18102,""colorHsl"":""hsl(210, 100%, 50%)""},{""timeMs"":18502,""colorHsl"":""hsl(290, 100%, 50%)""},{""timeMs"":18918,""colorHsl"":""hsl(210, 100%, 50%)""},{""timeMs"":19334,""colorHsl"":""hsl(290, 100%, 50%)""},{""timeMs"":19751,""colorHsl"":""hsl(210, 100%, 50%)""},{""timeMs"":20167,""colorHsl"":""hsl(290, 100%, 50%)""},{""timeMs"":20583,""colorHsl"":""hsl(210, 100%, 50%)""},{""timeMs"":20999,""colorHsl"":""hsl(290, 100%, 50%)""},{""timeMs"":21400,""colorHsl"":""hsl(210, 100%, 50%)""},{""timeMs"":21815,""colorHsl"":""hsl(290, 100%, 50%)""},{""timeMs"":22231,""colorHsl"":""hsl(210, 100%, 50%)""},{""timeMs"":22647,""colorHsl"":""hsl(290, 100%, 50%)""},{""timeMs"":23064,""colorHsl"":""hsl(210, 100%, 50%)""},{""timeMs"":23479,""colorHsl"":""hsl(290, 100%, 50%)""},{""timeMs"":23896,""colorHsl"":""hsl(210, 100%, 50%)""},{""timeMs"":24311,""colorHsl"":""hsl(290, 100%, 50%)""},{""timeMs"":24729,""colorHsl"":""hsl(210, 100%, 50%)""},{""timeMs"":25144,""colorHsl"":""hsl(290, 100%, 50%)""},{""timeMs"":25544,""colorHsl"":""hsl(210, 100%, 50%)""},{""timeMs"":25960,""colorHsl"":""hsl(290, 100%, 50%)""},{""timeMs"":26376,""colorHsl"":""hsl(210, 100%, 50%)""},{""timeMs"":26793,""colorHsl"":""hsl(290, 100%, 50%)""},{""timeMs"":27209,""colorHsl"":""hsl(210, 100%, 50%)""},{""timeMs"":27625,""colorHsl"":""hsl(290, 100%, 50%)""},{""timeMs"":28040,""colorHsl"":""hsl(210, 100%, 50%)""},{""timeMs"":28441,""colorHsl"":""hsl(290, 100%, 50%)""},{""timeMs"":28856,""colorHsl"":""hsl(210, 100%, 50%)""},{""timeMs"":29257,""colorHsl"":""hsl(290, 100%, 50%)""},{""timeMs"":29673,""colorHsl"":""hsl(210, 100%, 50%)""}]","[{""time_ms"":702},{""time_ms"":1463},{""time_ms"":2096},{""time_ms"":2781},{""time_ms"":3494},{""time_ms"":4177},{""time_ms"":4810},{""time_ms"":5501},{""time_ms"":6173},{""time_ms"":6876},{""time_ms"":7640},{""time_ms"":8443},{""time_ms"":9182},{""time_ms"":9825},{""time_ms"":10513},{""time_ms"":11188},{""time_ms"":11852},{""time_ms"":12607},{""time_ms"":13351},{""time_ms"":14099},{""time_ms"":14870},{""time_ms"":15797},{""time_ms"":16546},{""time_ms"":17102},{""time_ms"":17884},{""time_ms"":18599},{""time_ms"":19275},{""time_ms"":20030},{""time_ms"":20741},{""time_ms"":21473},{""time_ms"":22183},{""time_ms"":22905},{""time_ms"":23608},{""time_ms"":24390},{""time_ms"":25169},{""time_ms"":25886},{""time_ms"":26677},{""time_ms"":27434},{""time_ms"":28101},{""time_ms"":28800},{""time_ms"":29466}]","30000","size","color-size","30005.3","1",""
"html-keyboard-response","19","249345","0.0-18.0-0.0","female","51","100","p1.1_65f684e029d7c63f3338aed7","November 29, 2025 at 1:45 PM","November 29, 2025 at 2:01 PM","{""browser"":""Chrome"",""version"":""142""}","null","[""<div class='jspsych-display-element' style='justify-content: center; align-items: center; min-height: 80vh; width: 100%;'><div style='display: inline-block; margin: 0 auto; color: black; font-size: 2.5vh; line-height: 3.2vh; padding: 10px 200px 10px 200px; text-align: left'><p><div style='color: red; display: inline-block;'> <h1>Track Color</h1> </div> changes and <div style='color: red; display: inline-block;'> <h1>ignore Size</h1> </div> changes.</p><p>Press Enter to start the display.</p></div></div>""]","null","attendedFeatureInstr","","","","","","","","","","","","","","","","","","","","",""
"html-keyboard-response","20","251832","0.0-18.0-1.0","female","51","100","p1.1_65f684e029d7c63f3338aed7","November 29, 2025 at 1:45 PM","November 29, 2025 at 2:01 PM","{""browser"":""Chrome"",""version"":""142""}","2485","[""<div class='jspsych-display-element' style='justify-content: center; align-items: center; min-height: 80vh; width: 100%;'><div style='display: inline-block; margin: 0 auto; color: black; font-size: 2.5vh; line-height: 3.2vh; padding: 10px 200px 10px 200px; text-align: left'><p><div style='color: red; display: inline-block;'> <h1>Track Color</h1> </div> changes and <div style='color: red; display: inline-block;'> <h1>ignore Size</h1> </div> changes.</p><p>Press Enter to start the display.</p></div></div>""]","enter","trialStartWaiting","","","","","","","","","","","","","","","","","","","","",""
"html-keyboard-response","21","252773","0.0-19.0","female","51","100","p1.1_65f684e029d7c63f3338aed7","November 29, 2025 at 1:45 PM","November 29, 2025 at 2:01 PM","{""browser"":""Chrome"",""version"":""142""}","null","<p style='color: white; font-size: 50px; text-align: center'>+</p>","null","ITI","","","","","","","","","","","","","","","","","","","","",""
"rhytmicFeatureChangeTask","22","282785","0.0-20.0","female","51","100","p1.1_65f684e029d7c63f3338aed7","November 29, 2025 at 1:45 PM","November 29, 2025 at 2:01 PM","{""browser"":""Chrome"",""version"":""142""}","","","","test","","","500","450","[50,100]","1.2","[10,20]","[60,120]","hsl(210, 100%, 50%)","80","2.625","hsl(290, 100%, 50%)","[{""timeMs"":510,""rectSize"":[60,120]},{""timeMs"":1010,""rectSize"":[50,100]},{""timeMs"":1525,""rectSize"":[60,120]},{""timeMs"":2042,""rectSize"":[50,100]},{""timeMs"":2558,""rectSize"":[60,120]},{""timeMs"":3074,""rectSize"":[50,100]},{""timeMs"":3589,""rectSize"":[60,120]},{""timeMs"":4106,""rectSize"":[50,100]},{""timeMs"":4621,""rectSize"":[60,120]},{""timeMs"":5122,""rectSize"":[50,100]},{""timeMs"":5638,""rectSize"":[60,120]},{""timeMs"":6154,""rectSize"":[50,100]},{""timeMs"":6670,""rectSize"":[60,120]},{""timeMs"":7186,""rectSize"":[50,100]},{""timeMs"":7702,""rectSize"":[60,120]},{""timeMs"":8218,""rectSize"":[50,100]},{""timeMs"":8734,""rectSize"":[60,120]},{""timeMs"":9250,""rectSize"":[50,100]},{""timeMs"":9766,""rectSize"":[60,120]},{""timeMs"":10283,""rectSize"":[50,100]},{""timeMs"":10798,""rectSize"":[60,120]},{""timeMs"":11298,""rectSize"":[50,100]},{""timeMs"":11813,""rectSize"":[60,120]},{""timeMs"":12330,""rectSize"":[50,100]},{""timeMs"":12845,""rectSize"":[60,120]},{""timeMs"":13362,""rectSize"":[50,100]},{""timeMs"":13878,""rectSize"":[60,120]},{""timeMs"":14394,""rectSize"":[50,100]},{""timeMs"":14910,""rectSize"":[60,120]},{""timeMs"":15411,""rectSize"":[50,100]},{""timeMs"":15926,""rectSize"":[60,120]},{""timeMs"":16442,""rectSize"":[50,100]},{""timeMs"":16958,""rectSize"":[60,120]},{""timeMs"":17474,""rectSize"":[50,100]},{""timeMs"":17990,""rectSize"":[60,120]},{""timeMs"":18506,""rectSize"":[50,100]},{""timeMs"":19006,""rectSize"":[60,120]},{""timeMs"":19521,""rectSize"":[50,100]},{""timeMs"":20037,""rectSize"":[60,120]},{""timeMs"":20537,""rectSize"":[50,100]},{""timeMs"":21053,""rectSize"":[60,120]},{""timeMs"":21569,""rectSize"":[50,100]},{""timeMs"":22085,""rectSize"":[60,120]},{""timeMs"":22601,""rectSize"":[50,100]},{""timeMs"":23117,""rectSize"":[60,120]},{""timeMs"":23633,""rectSize"":[50,100]},{""timeMs"":24149,""rectSize"":[60,120]},{""timeMs"":24665,""rectSize"":[50,100]},{""timeMs"":25165,""rectSize"":[60,120]},{""timeMs"":25681,""rectSize"":[50,100]},{""timeMs"":26197,""rectSize"":[60,120]},{""timeMs"":26714,""rectSize"":[50,100]},{""timeMs"":27229,""rectSize"":[60,120]},{""timeMs"":27745,""rectSize"":[50,100]},{""timeMs"":28262,""rectSize"":[60,120]},{""timeMs"":28777,""rectSize"":[50,100]},{""timeMs"":29294,""rectSize"":[60,120]},{""timeMs"":29810,""rectSize"":[50,100]}]","[{""timeMs"":459,""colorHsl"":""hsl(290, 100%, 50%)""},{""timeMs"":926,""colorHsl"":""hsl(210, 100%, 50%)""},{""timeMs"":1376,""colorHsl"":""hsl(290, 100%, 50%)""},{""timeMs"":1842,""colorHsl"":""hsl(210, 100%, 50%)""},{""timeMs"":2308,""colorHsl"":""hsl(290, 100%, 50%)""},{""timeMs"":2774,""colorHsl"":""hsl(210, 100%, 50%)""},{""timeMs"":3240,""colorHsl"":""hsl(290, 100%, 50%)""},{""timeMs"":3707,""colorHsl"":""hsl(210, 100%, 50%)""},{""timeMs"":4173,""colorHsl"":""hsl(290, 100%, 50%)""},{""timeMs"":4639,""colorHsl"":""hsl(210, 100%, 50%)""},{""timeMs"":5105,""colorHsl"":""hsl(290, 100%, 50%)""},{""timeMs"":5570,""colorHsl"":""hsl(210, 100%, 50%)""},{""timeMs"":6037,""colorHsl"":""hsl(290, 100%, 50%)""},{""timeMs"":6503,""colorHsl"":""hsl(210, 100%, 50%)""},{""timeMs"":6953,""colorHsl"":""hsl(290, 100%, 50%)""},{""timeMs"":7418,""colorHsl"":""hsl(210, 100%, 50%)""},{""timeMs"":7869,""colorHsl"":""hsl(290, 100%, 50%)""},{""timeMs"":8335,""colorHsl"":""hsl(210, 100%, 50%)""},{""timeMs"":8801,""colorHsl"":""hsl(290, 100%, 50%)""},{""timeMs"":9267,""colorHsl"":""hsl(210, 100%, 50%)""},{""timeMs"":9733,""colorHsl"":""hsl(290, 100%, 50%)""},{""timeMs"":10199,""colorHsl"":""hsl(210, 100%, 50%)""},{""timeMs"":10665,""colorHsl"":""hsl(290, 100%, 50%)""},{""timeMs"":11131,""colorHsl"":""hsl(210, 100%, 50%)""},{""timeMs"":11597,""colorHsl"":""hsl(290, 100%, 50%)""},{""timeMs"":12064,""colorHsl"":""hsl(210, 100%, 50%)""},{""timeMs"":12529,""colorHsl"":""hsl(290, 100%, 50%)""},{""timeMs"":12979,""colorHsl"":""hsl(210, 100%, 50%)""},{""timeMs"":13445,""colorHsl"":""hsl(290, 100%, 50%)""},{""timeMs"":13911,""colorHsl"":""hsl(210, 100%, 50%)""},{""timeMs"":14377,""colorHsl"":""hsl(290, 100%, 50%)""},{""timeMs"":14844,""colorHsl"":""hsl(210, 100%, 50%)""},{""timeMs"":15294,""colorHsl"":""hsl(290, 100%, 50%)""},{""timeMs"":15759,""colorHsl"":""hsl(210, 100%, 50%)""},{""timeMs"":16209,""colorHsl"":""hsl(290, 100%, 50%)""},{""timeMs"":16675,""colorHsl"":""hsl(210, 100%, 50%)""},{""timeMs"":17140,""colorHsl"":""hsl(290, 100%, 50%)""},{""timeMs"":17590,""colorHsl"":""hsl(210, 100%, 50%)""},{""timeMs"":18056,""colorHsl"":""hsl(290, 100%, 50%)""},{""timeMs"":18522,""colorHsl"":""hsl(210, 100%, 50%)""},{""timeMs"":18972,""colorHsl"":""hsl(290, 100%, 50%)""},{""timeMs"":19438,""colorHsl"":""hsl(210, 100%, 50%)""},{""timeMs"":19888,""colorHsl"":""hsl(290, 100%, 50%)""},{""timeMs"":20353,""colorHsl"":""hsl(210, 100%, 50%)""},{""timeMs"":20820,""colorHsl"":""hsl(290, 100%, 50%)""},{""timeMs"":21285,""colorHsl"":""hsl(210, 100%, 50%)""},{""timeMs"":21736,""colorHsl"":""hsl(290, 100%, 50%)""},{""timeMs"":22202,""colorHsl"":""hsl(210, 100%, 50%)""},{""timeMs"":22667,""colorHsl"":""hsl(290, 100%, 50%)""},{""timeMs"":23133,""colorHsl"":""hsl(210, 100%, 50%)""},{""timeMs"":23599,""colorHsl"":""hsl(290, 100%, 50%)""},{""timeMs"":24049,""colorHsl"":""hsl(210, 100%, 50%)""},{""timeMs"":24500,""colorHsl"":""hsl(290, 100%, 50%)""},{""timeMs"":24965,""colorHsl"":""hsl(210, 100%, 50%)""},{""timeMs"":25431,""colorHsl"":""hsl(290, 100%, 50%)""},{""timeMs"":25881,""colorHsl"":""hsl(210, 100%, 50%)""},{""timeMs"":26346,""colorHsl"":""hsl(290, 100%, 50%)""},{""timeMs"":26796,""colorHsl"":""hsl(210, 100%, 50%)""},{""timeMs"":27263,""colorHsl"":""hsl(290, 100%, 50%)""},{""timeMs"":27728,""colorHsl"":""hsl(210, 100%, 50%)""},{""timeMs"":28194,""colorHsl"":""hsl(290, 100%, 50%)""},{""timeMs"":28660,""colorHsl"":""hsl(210, 100%, 50%)""},{""timeMs"":29111,""colorHsl"":""hsl(290, 100%, 50%)""},{""timeMs"":29576,""colorHsl"":""hsl(210, 100%, 50%)""}]","[{""time_ms"":874},{""time_ms"":1804},{""time_ms"":2550},{""time_ms"":3476},{""time_ms"":4446},{""time_ms"":5412},{""time_ms"":6392},{""time_ms"":7206},{""time_ms"":7992},{""time_ms"":9007},{""time_ms"":9813},{""time_ms"":10677},{""time_ms"":11566},{""time_ms"":12809},{""time_ms"":13843},{""time_ms"":16467},{""time_ms"":17306},{""time_ms"":18323},{""time_ms"":19230},{""time_ms"":20194},{""time_ms"":21113},{""time_ms"":22000},{""time_ms"":23065},{""time_ms"":24110},{""time_ms"":25662},{""time_ms"":26730},{""time_ms"":27669},{""time_ms"":28654},{""time_ms"":29635}]","30000","color","color-size","30009.6","2",""
"html-keyboard-response","23","283192","0.0-21.0-0.0","female","51","100","p1.1_65f684e029d7c63f3338aed7","November 29, 2025 at 1:45 PM","November 29, 2025 at 2:01 PM","{""browser"":""Chrome"",""version"":""142""}","null","[""<div class='jspsych-display-element' style='justify-content: center; align-items: center; min-height: 80vh; width: 100%;'><div style='display: inline-block; margin: 0 auto; color: black; font-size: 2.5vh; line-height: 3.2vh; padding: 10px 200px 10px 200px; text-align: left'><p><div style='color: red; display: inline-block;'> <h1>Track Size</h1> </div> changes and <div style='color: red; display: inline-block;'> <h1>ignore Color</h1> </div> changes.</p><p>Press Enter to start the display.</p></div></div>""]","null","attendedFeatureInstr","","","","","","","","","","","","","","","","","","","","",""
"html-keyboard-response","24","306030","0.0-21.0-1.0","female","51","100","p1.1_65f684e029d7c63f3338aed7","November 29, 2025 at 1:45 PM","November 29, 2025 at 2:01 PM","{""browser"":""Chrome"",""version"":""142""}","22837","[""<div class='jspsych-display-element' style='justify-content: center; align-items: center; min-height: 80vh; width: 100%;'><div style='display: inline-block; margin: 0 auto; color: black; font-size: 2.5vh; line-height: 3.2vh; padding: 10px 200px 10px 200px; text-align: left'><p><div style='color: red; display: inline-block;'> <h1>Track Size</h1> </div> changes and <div style='color: red; display: inline-block;'> <h1>ignore Color</h1> </div> changes.</p><p>Press Enter to start the display.</p></div></div>""]","enter","trialStartWaiting","","","","","","","","","","","","","","","","","","","","",""
"html-keyboard-response","25","306651","0.0-22.0","female","51","100","p1.1_65f684e029d7c63f3338aed7","November 29, 2025 at 1:45 PM","November 29, 2025 at 2:01 PM","{""browser"":""Chrome"",""version"":""142""}","null","<p style='color: white; font-size: 50px; text-align: center'>+</p>","null","ITI","","","","","","","","","","","","","","","","","","","","",""
"rhytmicFeatureChangeTask","26","336657","0.0-23.0","female","51","100","p1.1_65f684e029d7c63f3338aed7","November 29, 2025 at 1:45 PM","November 29, 2025 at 2:01 PM","{""browser"":""Chrome"",""version"":""142""}","","","","test","","","450","500","[50,100]","1.2","[10,20]","[60,120]","hsl(210, 100%, 50%)","80","2.625","hsl(290, 100%, 50%)","[{""timeMs"":454,""rectSize"":[60,120]},{""timeMs"":919,""rectSize"":[50,100]},{""timeMs"":1370,""rectSize"":[60,120]},{""timeMs"":1836,""rectSize"":[50,100]},{""timeMs"":2301,""rectSize"":[60,120]},{""timeMs"":2752,""rectSize"":[50,100]},{""timeMs"":3216,""rectSize"":[60,120]},{""timeMs"":3683,""rectSize"":[50,100]},{""timeMs"":4149,""rectSize"":[60,120]},{""timeMs"":4615,""rectSize"":[50,100]},{""timeMs"":5081,""rectSize"":[60,120]},{""timeMs"":5531,""rectSize"":[50,100]},{""timeMs"":5996,""rectSize"":[60,120]},{""timeMs"":6447,""rectSize"":[50,100]},{""timeMs"":6913,""rectSize"":[60,120]},{""timeMs"":7378,""rectSize"":[50,100]},{""timeMs"":7828,""rectSize"":[60,120]},{""timeMs"":8294,""rectSize"":[50,100]},{""timeMs"":8747,""rectSize"":[60,120]},{""timeMs"":9211,""rectSize"":[50,100]},{""timeMs"":9678,""rectSize"":[60,120]},{""timeMs"":10142,""rectSize"":[50,100]},{""timeMs"":10594,""rectSize"":[60,120]},{""timeMs"":11059,""rectSize"":[50,100]},{""timeMs"":11525,""rectSize"":[60,120]},{""timeMs"":11990,""rectSize"":[50,100]},{""timeMs"":12456,""rectSize"":[60,120]},{""timeMs"":12926,""rectSize"":[50,100]},{""timeMs"":13390,""rectSize"":[60,120]},{""timeMs"":13842,""rectSize"":[50,100]},{""timeMs"":14304,""rectSize"":[60,120]},{""timeMs"":14754,""rectSize"":[50,100]},{""timeMs"":15220,""rectSize"":[60,120]},{""timeMs"":15687,""rectSize"":[50,100]},{""timeMs"":16152,""rectSize"":[60,120]},{""timeMs"":16620,""rectSize"":[50,100]},{""timeMs"":17085,""rectSize"":[60,120]},{""timeMs"":17552,""rectSize"":[50,100]},{""timeMs"":18016,""rectSize"":[60,120]},{""timeMs"":18466,""rectSize"":[50,100]},{""timeMs"":18917,""rectSize"":[60,120]},{""timeMs"":19381,""rectSize"":[50,100]},{""timeMs"":19831,""rectSize"":[60,120]},{""timeMs"":20297,""rectSize"":[50,100]},{""timeMs"":20764,""rectSize"":[60,120]},{""timeMs"":21229,""rectSize"":[50,100]},{""timeMs"":21680,""rectSize"":[60,120]},{""timeMs"":22145,""rectSize"":[50,100]},{""timeMs"":22595,""rectSize"":[60,120]},{""timeMs"":23045,""rectSize"":[50,100]},{""timeMs"":23510,""rectSize"":[60,120]},{""timeMs"":23976,""rectSize"":[50,100]},{""timeMs"":24442,""rectSize"":[60,120]},{""timeMs"":24909,""rectSize"":[50,100]},{""timeMs"":25375,""rectSize"":[60,120]},{""timeMs"":25841,""rectSize"":[50,100]},{""timeMs"":26307,""rectSize"":[60,120]},{""timeMs"":26758,""rectSize"":[50,100]},{""timeMs"":27223,""rectSize"":[60,120]},{""timeMs"":27689,""rectSize"":[50,100]},{""timeMs"":28156,""rectSize"":[60,120]},{""timeMs"":28621,""rectSize"":[50,100]},{""timeMs"":29088,""rectSize"":[60,120]},{""timeMs"":29553,""rectSize"":[50,100]}]","[{""timeMs"":504,""colorHsl"":""hsl(290, 100%, 50%)""},{""timeMs"":1020,""colorHsl"":""hsl(210, 100%, 50%)""},{""timeMs"":1536,""colorHsl"":""hsl(290, 100%, 50%)""},{""timeMs"":2052,""colorHsl"":""hsl(210, 100%, 50%)""},{""timeMs"":2569,""colorHsl"":""hsl(290, 100%, 50%)""},{""timeMs"":3083,""colorHsl"":""hsl(210, 100%, 50%)""},{""timeMs"":3599,""colorHsl"":""hsl(290, 100%, 50%)""},{""timeMs"":4115,""colorHsl"":""hsl(210, 100%, 50%)""},{""timeMs"":4631,""colorHsl"":""hsl(290, 100%, 50%)""},{""timeMs"":5148,""colorHsl"":""hsl(210, 100%, 50%)""},{""timeMs"":5664,""colorHsl"":""hsl(290, 100%, 50%)""},{""timeMs"":6179,""colorHsl"":""hsl(210, 100%, 50%)""},{""timeMs"":6680,""colorHsl"":""hsl(290, 100%, 50%)""},{""timeMs"":7195,""colorHsl"":""hsl(210, 100%, 50%)""},{""timeMs"":7713,""colorHsl"":""hsl(290, 100%, 50%)""},{""timeMs"":8230,""colorHsl"":""hsl(210, 100%, 50%)""},{""timeMs"":8747,""colorHsl"":""hsl(290, 100%, 50%)""},{""timeMs"":9260,""colorHsl"":""hsl(210, 100%, 50%)""},{""timeMs"":9761,""colorHsl"":""hsl(290, 100%, 50%)""},{""timeMs"":10278,""colorHsl"":""hsl(210, 100%, 50%)""},{""timeMs"":10793,""colorHsl"":""hsl(290, 100%, 50%)""},{""timeMs"":11307,""colorHsl"":""hsl(210, 100%, 50%)""},{""timeMs"":11824,""colorHsl"":""hsl(290, 100%, 50%)""},{""timeMs"":12339,""colorHsl"":""hsl(210, 100%, 50%)""},{""timeMs"":12856,""colorHsl"":""hsl(290, 100%, 50%)""},{""timeMs"":13372,""colorHsl"":""hsl(210, 100%, 50%)""},{""timeMs"":13873,""colorHsl"":""hsl(290, 100%, 50%)""},{""timeMs"":14390,""colorHsl"":""hsl(210, 100%, 50%)""},{""timeMs"":14904,""colorHsl"":""hsl(290, 100%, 50%)""},{""timeMs"":15419,""colorHsl"":""hsl(210, 100%, 50%)""},{""timeMs"":15921,""colorHsl"":""hsl(290, 100%, 50%)""},{""timeMs"":16436,""colorHsl"":""hsl(210, 100%, 50%)""},{""timeMs"":16951,""colorHsl"":""hsl(290, 100%, 50%)""},{""timeMs"":17451,""colorHsl"":""hsl(210, 100%, 50%)""},{""timeMs"":17966,""colorHsl"":""hsl(290, 100%, 50%)""},{""timeMs"":18483,""colorHsl"":""hsl(210, 100%, 50%)""},{""timeMs"":18998,""colorHsl"":""hsl(290, 100%, 50%)""},{""timeMs"":19515,""colorHsl"":""hsl(210, 100%, 50%)""},{""timeMs"":20031,""colorHsl"":""hsl(290, 100%, 50%)""},{""timeMs"":20548,""colorHsl"":""hsl(210, 100%, 50%)""},{""timeMs"":21063,""colorHsl"":""hsl(290, 100%, 50%)""},{""timeMs"":21579,""colorHsl"":""hsl(210, 100%, 50%)""},{""timeMs"":22096,""colorHsl"":""hsl(290, 100%, 50%)""},{""timeMs"":22612,""colorHsl"":""hsl(210, 100%, 50%)""},{""timeMs"":23128,""colorHsl"":""hsl(290, 100%, 50%)""},{""timeMs"":23644,""colorHsl"":""hsl(210, 100%, 50%)""},{""timeMs"":24160,""colorHsl"":""hsl(290, 100%, 50%)""},{""timeMs"":24679,""colorHsl"":""hsl(210, 100%, 50%)""},{""timeMs"":25192,""colorHsl"":""hsl(290, 100%, 50%)""},{""timeMs"":25693,""colorHsl"":""hsl(210, 100%, 50%)""},{""timeMs"":26207,""colorHsl"":""hsl(290, 100%, 50%)""},{""timeMs"":26711,""colorHsl"":""hsl(210, 100%, 50%)""},{""timeMs"":27223,""colorHsl"":""hsl(290, 100%, 50%)""},{""timeMs"":27739,""colorHsl"":""hsl(210, 100%, 50%)""},{""timeMs"":28255,""colorHsl"":""hsl(290, 100%, 50%)""},{""timeMs"":28771,""colorHsl"":""hsl(210, 100%, 50%)""},{""timeMs"":29286,""colorHsl"":""hsl(290, 100%, 50%)""},{""timeMs"":29786,""colorHsl"":""hsl(210, 100%, 50%)""}]","[{""time_ms"":828},{""time_ms"":1750},{""time_ms"":2717},{""time_ms"":3492},{""time_ms"":4409},{""time_ms"":5474},{""time_ms"":6388},{""time_ms"":7208},{""time_ms"":8235},{""time_ms"":9290},{""time_ms"":10104},{""time_ms"":10961},{""time_ms"":11914},{""time_ms"":12831},{""time_ms"":13680},{""time_ms"":14628},{""time_ms"":15467},{""time_ms"":16331},{""time_ms"":17249},{""time_ms"":18290},{""time_ms"":19042},{""time_ms"":19885},{""time_ms"":20893},{""time_ms"":21786},{""time_ms"":22721},{""time_ms"":23602},{""time_ms"":24770},{""time_ms"":25756},{""time_ms"":26710},{""time_ms"":27565},{""time_ms"":28459},{""time_ms"":29285}]","30000","size","color-size","30004.4","3",""
"html-keyboard-response","27","337062","0.0-24.0-0.0","female","51","100","p1.1_65f684e029d7c63f3338aed7","November 29, 2025 at 1:45 PM","November 29, 2025 at 2:01 PM","{""browser"":""Chrome"",""version"":""142""}","null","[""<div class='jspsych-display-element' style='justify-content: center; align-items: center; min-height: 80vh; width: 100%;'><div style='display: inline-block; margin: 0 auto; color: black; font-size: 2.5vh; line-height: 3.2vh; padding: 10px 200px 10px 200px; text-align: left'><p><div style='color: red; display: inline-block;'> <h1>Track Color</h1> </div> changes and <div style='color: red; display: inline-block;'> <h1>ignore Size</h1> </div> changes.</p><p>Press Enter to start the display.</p></div></div>""]","null","attendedFeatureInstr","","","","","","","","","","","","","","","","","","","","",""
"html-keyboard-response","28","339864","0.0-24.0-1.0","female","51","100","p1.1_65f684e029d7c63f3338aed7","November 29, 2025 at 1:45 PM","November 29, 2025 at 2:01 PM","{""browser"":""Chrome"",""version"":""142""}","2801","[""<div class='jspsych-display-element' style='justify-content: center; align-items: center; min-height: 80vh; width: 100%;'><div style='display: inline-block; margin: 0 auto; color: black; font-size: 2.5vh; line-height: 3.2vh; padding: 10px 200px 10px 200px; text-align: left'><p><div style='color: red; display: inline-block;'> <h1>Track Color</h1> </div> changes and <div style='color: red; display: inline-block;'> <h1>ignore Size</h1> </div> changes.</p><p>Press Enter to start the display.</p></div></div>""]","enter","trialStartWaiting","","","","","","","","","","","","","","","","","","","","",""
"html-keyboard-response","29","340420","0.0-25.0","female","51","100","p1.1_65f684e029d7c63f3338aed7","November 29, 2025 at 1:45 PM","November 29, 2025 at 2:01 PM","{""browser"":""Chrome"",""version"":""142""}","null","<p style='color: white; font-size: 50px; text-align: center'>+</p>","null","ITI","","","","","","","","","","","","","","","","","","","","",""
"rhytmicFeatureChangeTask","30","370433","0.0-26.0","female","51","100","p1.1_65f684e029d7c63f3338aed7","November 29, 2025 at 1:45 PM","November 29, 2025 at 2:01 PM","{""browser"":""Chrome"",""version"":""142""}","","","","test","","","350","400","[50,100]","1.2","[10,20]","[60,120]","hsl(210, 100%, 50%)","80","2.625","hsl(290, 100%, 50%)","[{""timeMs"":363,""rectSize"":[60,120]},{""timeMs"":730,""rectSize"":[50,100]},{""timeMs"":1095,""rectSize"":[60,120]},{""timeMs"":1462,""rectSize"":[50,100]},{""timeMs"":1828,""rectSize"":[60,120]},{""timeMs"":2178,""rectSize"":[50,100]},{""timeMs"":2544,""rectSize"":[60,120]},{""timeMs"":2909,""rectSize"":[50,100]},{""timeMs"":3276,""rectSize"":[60,120]},{""timeMs"":3642,""rectSize"":[50,100]},{""timeMs"":4009,""rectSize"":[60,120]},{""timeMs"":4375,""rectSize"":[50,100]},{""timeMs"":4741,""rectSize"":[60,120]},{""timeMs"":5107,""rectSize"":[50,100]},{""timeMs"":5474,""rectSize"":[60,120]},{""timeMs"":5824,""rectSize"":[50,100]},{""timeMs"":6190,""rectSize"":[60,120]},{""timeMs"":6555,""rectSize"":[50,100]},{""timeMs"":6922,""rectSize"":[60,120]},{""timeMs"":7288,""rectSize"":[50,100]},{""timeMs"":7638,""rectSize"":[60,120]},{""timeMs"":8004,""rectSize"":[50,100]},{""timeMs"":8370,""rectSize"":[60,120]},{""timeMs"":8737,""rectSize"":[50,100]},{""timeMs"":9087,""rectSize"":[60,120]},{""timeMs"":9452,""rectSize"":[50,100]},{""timeMs"":9819,""rectSize"":[60,120]},{""timeMs"":10185,""rectSize"":[50,100]},{""timeMs"":10551,""rectSize"":[60,120]},{""timeMs"":10917,""rectSize"":[50,100]},{""timeMs"":11283,""rectSize"":[60,120]},{""timeMs"":11633,""rectSize"":[50,100]},{""timeMs"":11983,""rectSize"":[60,120]},{""timeMs"":12349,""rectSize"":[50,100]},{""timeMs"":12715,""rectSize"":[60,120]},{""timeMs"":13081,""rectSize"":[50,100]},{""timeMs"":13447,""rectSize"":[60,120]},{""timeMs"":13814,""rectSize"":[50,100]},{""timeMs"":14164,""rectSize"":[60,120]},{""timeMs"":14515,""rectSize"":[50,100]},{""timeMs"":14879,""rectSize"":[60,120]},{""timeMs"":15246,""rectSize"":[50,100]},{""timeMs"":15612,""rectSize"":[60,120]},{""timeMs"":15962,""rectSize"":[50,100]},{""timeMs"":16328,""rectSize"":[60,120]},{""timeMs"":16693,""rectSize"":[50,100]},{""timeMs"":17043,""rectSize"":[60,120]},{""timeMs"":17409,""rectSize"":[50,100]},{""timeMs"":17760,""rectSize"":[60,120]},{""timeMs"":18126,""rectSize"":[50,100]},{""timeMs"":18491,""rectSize"":[60,120]},{""timeMs"":18858,""rectSize"":[50,100]},{""timeMs"":19224,""rectSize"":[60,120]},{""timeMs"":19591,""rectSize"":[50,100]},{""timeMs"":19957,""rectSize"":[60,120]},{""timeMs"":20307,""rectSize"":[50,100]},{""timeMs"":20672,""rectSize"":[60,120]},{""timeMs"":21022,""rectSize"":[50,100]},{""timeMs"":21388,""rectSize"":[60,120]},{""timeMs"":21738,""rectSize"":[50,100]},{""timeMs"":22104,""rectSize"":[60,120]},{""timeMs"":22470,""rectSize"":[50,100]},{""timeMs"":22836,""rectSize"":[60,120]},{""timeMs"":23186,""rectSize"":[50,100]},{""timeMs"":23552,""rectSize"":[60,120]},{""timeMs"":23919,""rectSize"":[50,100]},{""timeMs"":24285,""rectSize"":[60,120]},{""timeMs"":24651,""rectSize"":[50,100]},{""timeMs"":25001,""rectSize"":[60,120]},{""timeMs"":25367,""rectSize"":[50,100]},{""timeMs"":25733,""rectSize"":[60,120]},{""timeMs"":26099,""rectSize"":[50,100]},{""timeMs"":26466,""rectSize"":[60,120]},{""timeMs"":26816,""rectSize"":[50,100]},{""timeMs"":27181,""rectSize"":[60,120]},{""timeMs"":27548,""rectSize"":[50,100]},{""timeMs"":27914,""rectSize"":[60,120]},{""timeMs"":28280,""rectSize"":[50,100]},{""timeMs"":28647,""rectSize"":[60,120]},{""timeMs"":29013,""rectSize"":[50,100]},{""timeMs"":29380,""rectSize"":[60,120]},{""timeMs"":29745,""rectSize"":[50,100]}]","[{""timeMs"":413,""colorHsl"":""hsl(290, 100%, 50%)""},{""timeMs"":828,""colorHsl"":""hsl(210, 100%, 50%)""},{""timeMs"":1245,""colorHsl"":""hsl(290, 100%, 50%)""},{""timeMs"":1645,""colorHsl"":""hsl(210, 100%, 50%)""},{""timeMs"":2061,""colorHsl"":""hsl(290, 100%, 50%)""},{""timeMs"":2477,""colorHsl"":""hsl(210, 100%, 50%)""},{""timeMs"":2893,""colorHsl"":""hsl(290, 100%, 50%)""},{""timeMs"":3309,""colorHsl"":""hsl(210, 100%, 50%)""},{""timeMs"":3726,""colorHsl"":""hsl(290, 100%, 50%)""},{""timeMs"":4126,""colorHsl"":""hsl(210, 100%, 50%)""},{""timeMs"":4542,""colorHsl"":""hsl(290, 100%, 50%)""},{""timeMs"":4957,""colorHsl"":""hsl(210, 100%, 50%)""},{""timeMs"":5374,""colorHsl"":""hsl(290, 100%, 50%)""},{""timeMs"":5790,""colorHsl"":""hsl(210, 100%, 50%)""},{""timeMs"":6206,""colorHsl"":""hsl(290, 100%, 50%)""},{""timeMs"":6623,""colorHsl"":""hsl(210, 100%, 50%)""},{""timeMs"":7038,""colorHsl"":""hsl(290, 100%, 50%)""},{""timeMs"":7454,""colorHsl"":""hsl(210, 100%, 50%)""},{""timeMs"":7854,""colorHsl"":""hsl(290, 100%, 50%)""},{""timeMs"":8271,""colorHsl"":""hsl(210, 100%, 50%)""},{""timeMs"":8686,""colorHsl"":""hsl(290, 100%, 50%)""},{""timeMs"":9087,""colorHsl"":""hsl(210, 100%, 50%)""},{""timeMs"":9503,""colorHsl"":""hsl(290, 100%, 50%)""},{""timeMs"":9918,""colorHsl"":""hsl(210, 100%, 50%)""},{""timeMs"":10334,""colorHsl"":""hsl(290, 100%, 50%)""},{""timeMs"":10751,""colorHsl"":""hsl(210, 100%, 50%)""},{""timeMs"":11152,""colorHsl"":""hsl(290, 100%, 50%)""},{""timeMs"":11567,""colorHsl"":""hsl(210, 100%, 50%)""},{""timeMs"":11983,""colorHsl"":""hsl(290, 100%, 50%)""},{""timeMs"":12399,""colorHsl"":""hsl(210, 100%, 50%)""},{""timeMs"":12799,""colorHsl"":""hsl(290, 100%, 50%)""},{""timeMs"":13214,""colorHsl"":""hsl(210, 100%, 50%)""},{""timeMs"":13615,""colorHsl"":""hsl(290, 100%, 50%)""},{""timeMs"":14030,""colorHsl"":""hsl(210, 100%, 50%)""},{""timeMs"":14446,""colorHsl"":""hsl(290, 100%, 50%)""},{""timeMs"":14863,""colorHsl"":""hsl(210, 100%, 50%)""},{""timeMs"":15279,""colorHsl"":""hsl(290, 100%, 50%)""},{""timeMs"":15695,""colorHsl"":""hsl(210, 100%, 50%)""},{""timeMs"":16112,""colorHsl"":""hsl(290, 100%, 50%)""},{""timeMs"":16528,""colorHsl"":""hsl(210, 100%, 50%)""},{""timeMs"":16944,""colorHsl"":""hsl(290, 100%, 50%)""},{""timeMs"":17360,""colorHsl"":""hsl(210, 100%, 50%)""},{""timeMs"":17776,""colorHsl"":""hsl(290, 100%, 50%)""},{""timeMs"":18192,""colorHsl"":""hsl(210, 100%, 50%)""},{""timeMs"":18608,""colorHsl"":""hsl(290, 100%, 50%)""},{""timeMs"":19008,""colorHsl"":""hsl(210, 100%, 50%)""},{""timeMs"":19424,""colorHsl"":""hsl(290, 100%, 50%)""},{""timeMs"":19840,""colorHsl"":""hsl(210, 100%, 50%)""},{""timeMs"":20256,""colorHsl"":""hsl(290, 100%, 50%)""},{""timeMs"":20672,""colorHsl"":""hsl(210, 100%, 50%)""},{""timeMs"":21088,""colorHsl"":""hsl(290, 100%, 50%)""},{""timeMs"":21488,""colorHsl"":""hsl(210, 100%, 50%)""},{""timeMs"":21904,""colorHsl"":""hsl(290, 100%, 50%)""},{""timeMs"":22321,""colorHsl"":""hsl(210, 100%, 50%)""},{""timeMs"":22737,""colorHsl"":""hsl(290, 100%, 50%)""},{""timeMs"":23153,""colorHsl"":""hsl(210, 100%, 50%)""},{""timeMs"":23569,""colorHsl"":""hsl(290, 100%, 50%)""},{""timeMs"":23985,""colorHsl"":""hsl(210, 100%, 50%)""},{""timeMs"":24401,""colorHsl"":""hsl(290, 100%, 50%)""},{""timeMs"":24817,""colorHsl"":""hsl(210, 100%, 50%)""},{""timeMs"":25234,""colorHsl"":""hsl(290, 100%, 50%)""},{""timeMs"":25650,""colorHsl"":""hsl(210, 100%, 50%)""},{""timeMs"":26066,""colorHsl"":""hsl(290, 100%, 50%)""},{""timeMs"":26466,""colorHsl"":""hsl(210, 100%, 50%)""},{""timeMs"":26883,""colorHsl"":""hsl(290, 100%, 50%)""},{""timeMs"":27298,""colorHsl"":""hsl(210, 100%, 50%)""},{""timeMs"":27715,""colorHsl"":""hsl(290, 100%, 50%)""},{""timeMs"":28131,""colorHsl"":""hsl(210, 100%, 50%)""},{""timeMs"":28547,""colorHsl"":""hsl(290, 100%, 50%)""},{""timeMs"":28963,""colorHsl"":""hsl(210, 100%, 50%)""},{""timeMs"":29380,""colorHsl"":""hsl(290, 100%, 50%)""},{""timeMs"":29795,""colorHsl"":""hsl(210, 100%, 50%)""}]","[{""time_ms"":640},{""time_ms"":1400},{""time_ms"":2104},{""time_ms"":2962},{""time_ms"":3986},{""time_ms"":4829},{""time_ms"":5600},{""time_ms"":6431},{""time_ms"":7165},{""time_ms"":8011},{""time_ms"":8780},{""time_ms"":9604},{""time_ms"":10248},{""time_ms"":10927},{""time_ms"":12229},{""time_ms"":13022},{""time_ms"":13923},{""time_ms"":14719},{""time_ms"":15439},{""time_ms"":16270},{""time_ms"":17117},{""time_ms"":17962},{""time_ms"":18700},{""time_ms"":19579},{""time_ms"":20335},{""time_ms"":21147},{""time_ms"":21815},{""time_ms"":23114},{""time_ms"":23876},{""time_ms"":24741},{""time_ms"":25413},{""time_ms"":26176},{""time_ms"":27342},{""time_ms"":27956},{""time_ms"":28655},{""time_ms"":29461}]","30000","color","color-size","30011.7","4",""
"html-keyboard-response","31","370840","0.0-27.0-0.0","female","51","100","p1.1_65f684e029d7c63f3338aed7","November 29, 2025 at 1:45 PM","November 29, 2025 at 2:01 PM","{""browser"":""Chrome"",""version"":""142""}","null","[""<div class='jspsych-display-element' style='justify-content: center; align-items: center; min-height: 80vh; width: 100%;'><div style='display: inline-block; margin: 0 auto; color: black; font-size: 2.5vh; line-height: 3.2vh; padding: 10px 200px 10px 200px; text-align: left'><p><div style='color: red; display: inline-block;'> <h1>Track Size</h1> </div> changes and <div style='color: red; display: inline-block;'> <h1>ignore Color</h1> </div> changes.</p><p>Press Enter to start the display.</p></div></div>""]","null","attendedFeatureInstr","","","","","","","","","","","","","","","","","","","","",""
"html-keyboard-response","32","375966","0.0-27.0-1.0","female","51","100","p1.1_65f684e029d7c63f3338aed7","November 29, 2025 at 1:45 PM","November 29, 2025 at 2:01 PM","{""browser"":""Chrome"",""version"":""142""}","5125","[""<div class='jspsych-display-element' style='justify-content: center; align-items: center; min-height: 80vh; width: 100%;'><div style='display: inline-block; margin: 0 auto; color: black; font-size: 2.5vh; line-height: 3.2vh; padding: 10px 200px 10px 200px; text-align: left'><p><div style='color: red; display: inline-block;'> <h1>Track Size</h1> </div> changes and <div style='color: red; display: inline-block;'> <h1>ignore Color</h1> </div> changes.</p><p>Press Enter to start the display.</p></div></div>""]","enter","trialStartWaiting","","","","","","","","","","","","","","","","","","","","",""
"html-keyboard-response","33","376854","0.0-28.0","female","51","100","p1.1_65f684e029d7c63f3338aed7","November 29, 2025 at 1:45 PM","November 29, 2025 at 2:01 PM","{""browser"":""Chrome"",""version"":""142""}","null","<p style='color: white; font-size: 50px; text-align: center'>+</p>","null","ITI","","","","","","","","","","","","","","","","","","","","",""
"rhytmicFeatureChangeTask","34","406860","0.0-29.0","female","51","100","p1.1_65f684e029d7c63f3338aed7","November 29, 2025 at 1:45 PM","November 29, 2025 at 2:01 PM","{""browser"":""Chrome"",""version"":""142""}","","","","test","","","500","450","[50,100]","1.2","[10,20]","[60,120]","hsl(210, 100%, 50%)","80","2.625","hsl(290, 100%, 50%)","[{""timeMs"":502,""rectSize"":[60,120]},{""timeMs"":1018,""rectSize"":[50,100]},{""timeMs"":1535,""rectSize"":[60,120]},{""timeMs"":2050,""rectSize"":[50,100]},{""timeMs"":2567,""rectSize"":[60,120]},{""timeMs"":3068,""rectSize"":[50,100]},{""timeMs"":3582,""rectSize"":[60,120]},{""timeMs"":4098,""rectSize"":[50,100]},{""timeMs"":4614,""rectSize"":[60,120]},{""timeMs"":5130,""rectSize"":[50,100]},{""timeMs"":5646,""rectSize"":[60,120]},{""timeMs"":6162,""rectSize"":[50,100]},{""timeMs"":6662,""rectSize"":[60,120]},{""timeMs"":7163,""rectSize"":[50,100]},{""timeMs"":7677,""rectSize"":[60,120]},{""timeMs"":8193,""rectSize"":[50,100]},{""timeMs"":8709,""rectSize"":[60,120]},{""timeMs"":9225,""rectSize"":[50,100]},{""timeMs"":9742,""rectSize"":[60,120]},{""timeMs"":10257,""rectSize"":[50,100]},{""timeMs"":10774,""rectSize"":[60,120]},{""timeMs"":11290,""rectSize"":[50,100]},{""timeMs"":11790,""rectSize"":[60,120]},{""timeMs"":12306,""rectSize"":[50,100]},{""timeMs"":12821,""rectSize"":[60,120]},{""timeMs"":13338,""rectSize"":[50,100]},{""timeMs"":13854,""rectSize"":[60,120]},{""timeMs"":14370,""rectSize"":[50,100]},{""timeMs"":14886,""rectSize"":[60,120]},{""timeMs"":15402,""rectSize"":[50,100]},{""timeMs"":15918,""rectSize"":[60,120]},{""timeMs"":16434,""rectSize"":[50,100]},{""timeMs"":16934,""rectSize"":[60,120]},{""timeMs"":17450,""rectSize"":[50,100]},{""timeMs"":17965,""rectSize"":[60,120]},{""timeMs"":18481,""rectSize"":[50,100]},{""timeMs"":18982,""rectSize"":[60,120]},{""timeMs"":19497,""rectSize"":[50,100]},{""timeMs"":20013,""rectSize"":[60,120]},{""timeMs"":20529,""rectSize"":[50,100]},{""timeMs"":21045,""rectSize"":[60,120]},{""timeMs"":21561,""rectSize"":[50,100]},{""timeMs"":22077,""rectSize"":[60,120]},{""timeMs"":22594,""rectSize"":[50,100]},{""timeMs"":23110,""rectSize"":[60,120]},{""timeMs"":23626,""rectSize"":[50,100]},{""timeMs"":24142,""rectSize"":[60,120]},{""timeMs"":24658,""rectSize"":[50,100]},{""timeMs"":25173,""rectSize"":[60,120]},{""timeMs"":25674,""rectSize"":[50,100]},{""timeMs"":26189,""rectSize"":[60,120]},{""timeMs"":26706,""rectSize"":[50,100]},{""timeMs"":27222,""rectSize"":[60,120]},{""timeMs"":27738,""rectSize"":[50,100]},{""timeMs"":28254,""rectSize"":[60,120]},{""timeMs"":28770,""rectSize"":[50,100]},{""timeMs"":29286,""rectSize"":[60,120]},{""timeMs"":29802,""rectSize"":[50,100]}]","[{""timeMs"":453,""colorHsl"":""hsl(290, 100%, 50%)""},{""timeMs"":919,""colorHsl"":""hsl(210, 100%, 50%)""},{""timeMs"":1384,""colorHsl"":""hsl(290, 100%, 50%)""},{""timeMs"":1837,""colorHsl"":""hsl(210, 100%, 50%)""},{""timeMs"":2300,""colorHsl"":""hsl(290, 100%, 50%)""},{""timeMs"":2750,""colorHsl"":""hsl(210, 100%, 50%)""},{""timeMs"":3216,""colorHsl"":""hsl(290, 100%, 50%)""},{""timeMs"":3682,""colorHsl"":""hsl(210, 100%, 50%)""},{""timeMs"":4133,""colorHsl"":""hsl(290, 100%, 50%)""},{""timeMs"":4597,""colorHsl"":""hsl(210, 100%, 50%)""},{""timeMs"":5064,""colorHsl"":""hsl(290, 100%, 50%)""},{""timeMs"":5530,""colorHsl"":""hsl(210, 100%, 50%)""},{""timeMs"":5995,""colorHsl"":""hsl(290, 100%, 50%)""},{""timeMs"":6446,""colorHsl"":""hsl(210, 100%, 50%)""},{""timeMs"":6912,""colorHsl"":""hsl(290, 100%, 50%)""},{""timeMs"":7378,""colorHsl"":""hsl(210, 100%, 50%)""},{""timeMs"":7844,""colorHsl"":""hsl(290, 100%, 50%)""},{""timeMs"":8310,""colorHsl"":""hsl(210, 100%, 50%)""},{""timeMs"":8760,""colorHsl"":""hsl(290, 100%, 50%)""},{""timeMs"":9225,""colorHsl"":""hsl(210, 100%, 50%)""},{""timeMs"":9675,""colorHsl"":""hsl(290, 100%, 50%)""},{""timeMs"":10141,""colorHsl"":""hsl(210, 100%, 50%)""},{""timeMs"":10608,""colorHsl"":""hsl(290, 100%, 50%)""},{""timeMs"":11074,""colorHsl"":""hsl(210, 100%, 50%)""},{""timeMs"":11540,""colorHsl"":""hsl(290, 100%, 50%)""},{""timeMs"":11990,""colorHsl"":""hsl(210, 100%, 50%)""},{""timeMs"":12455,""colorHsl"":""hsl(290, 100%, 50%)""},{""timeMs"":12921,""colorHsl"":""hsl(210, 100%, 50%)""},{""timeMs"":13388,""colorHsl"":""hsl(290, 100%, 50%)""},{""timeMs"":13854,""colorHsl"":""hsl(210, 100%, 50%)""},{""timeMs"":14320,""colorHsl"":""hsl(290, 100%, 50%)""},{""timeMs"":14786,""colorHsl"":""hsl(210, 100%, 50%)""},{""timeMs"":15252,""colorHsl"":""hsl(290, 100%, 50%)""},{""timeMs"":15718,""colorHsl"":""hsl(210, 100%, 50%)""},{""timeMs"":16184,""colorHsl"":""hsl(290, 100%, 50%)""},{""timeMs"":16634,""colorHsl"":""hsl(210, 100%, 50%)""},{""timeMs"":17100,""colorHsl"":""hsl(290, 100%, 50%)""},{""timeMs"":17568,""colorHsl"":""hsl(210, 100%, 50%)""},{""timeMs"":18033,""colorHsl"":""hsl(290, 100%, 50%)""},{""timeMs"":18498,""colorHsl"":""hsl(210, 100%, 50%)""},{""timeMs"":18964,""colorHsl"":""hsl(290, 100%, 50%)""},{""timeMs"":19431,""colorHsl"":""hsl(210, 100%, 50%)""},{""timeMs"":19896,""colorHsl"":""hsl(290, 100%, 50%)""},{""timeMs"":20363,""colorHsl"":""hsl(210, 100%, 50%)""},{""timeMs"":20829,""colorHsl"":""hsl(290, 100%, 50%)""},{""timeMs"":21295,""colorHsl"":""hsl(210, 100%, 50%)""},{""timeMs"":21745,""colorHsl"":""hsl(290, 100%, 50%)""},{""timeMs"":22210,""colorHsl"":""hsl(210, 100%, 50%)""},{""timeMs"":22661,""colorHsl"":""hsl(290, 100%, 50%)""},{""timeMs"":23126,""colorHsl"":""hsl(210, 100%, 50%)""},{""timeMs"":23579,""colorHsl"":""hsl(290, 100%, 50%)""},{""timeMs"":24041,""colorHsl"":""hsl(210, 100%, 50%)""},{""timeMs"":24508,""colorHsl"":""hsl(290, 100%, 50%)""},{""timeMs"":24975,""colorHsl"":""hsl(210, 100%, 50%)""},{""timeMs"":25441,""colorHsl"":""hsl(290, 100%, 50%)""},{""timeMs"":25906,""colorHsl"":""hsl(210, 100%, 50%)""},{""timeMs"":26372,""colorHsl"":""hsl(290, 100%, 50%)""},{""timeMs"":26838,""colorHsl"":""hsl(210, 100%, 50%)""},{""timeMs"":27304,""colorHsl"":""hsl(290, 100%, 50%)""},{""timeMs"":27754,""colorHsl"":""hsl(210, 100%, 50%)""},{""timeMs"":28220,""colorHsl"":""hsl(290, 100%, 50%)""},{""timeMs"":28686,""colorHsl"":""hsl(210, 100%, 50%)""},{""timeMs"":29152,""colorHsl"":""hsl(290, 100%, 50%)""},{""timeMs"":29619,""colorHsl"":""hsl(210, 100%, 50%)""}]","[{""time_ms"":849},{""time_ms"":1843},{""time_ms"":2807},{""time_ms"":3809},{""time_ms"":4755},{""time_ms"":5708},{""time_ms"":6835},{""time_ms"":7924},{""time_ms"":8884},{""time_ms"":9986},{""time_ms"":10932},{""time_ms"":12065},{""time_ms"":13069},{""time_ms"":14165},{""time_ms"":15162},{""time_ms"":16196},{""time_ms"":17256},{""time_ms"":18239},{""time_ms"":19121},{""time_ms"":20163},{""time_ms"":21137},{""time_ms"":22387},{""time_ms"":23440},{""time_ms"":24466},{""time_ms"":25480},{""time_ms"":26331},{""time_ms"":27525},{""time_ms"":28591},{""time_ms"":29528}]","30000","size","color-size","30001.7","5",""
"html-keyboard-response","35","407264","0.0-30.0-0.0","female","51","100","p1.1_65f684e029d7c63f3338aed7","November 29, 2025 at 1:45 PM","November 29, 2025 at 2:01 PM","{""browser"":""Chrome"",""version"":""142""}","null","[""<div class='jspsych-display-element' style='justify-content: center; align-items: center; min-height: 80vh; width: 100%;'><div style='display: inline-block; margin: 0 auto; color: black; font-size: 2.5vh; line-height: 3.2vh; padding: 10px 200px 10px 200px; text-align: left'><p><div style='color: red; display: inline-block;'> <h1>Track Color</h1> </div> changes and <div style='color: red; display: inline-block;'> <h1>ignore Size</h1> </div> changes.</p><p>Press Enter to start the display.</p></div></div>""]","null","attendedFeatureInstr","","","","","","","","","","","","","","","","","","","","",""
"html-keyboard-response","36","411887","0.0-30.0-1.0","female","51","100","p1.1_65f684e029d7c63f3338aed7","November 29, 2025 at 1:45 PM","November 29, 2025 at 2:01 PM","{""browser"":""Chrome"",""version"":""142""}","4621","[""<div class='jspsych-display-element' style='justify-content: center; align-items: center; min-height: 80vh; width: 100%;'><div style='display: inline-block; margin: 0 auto; color: black; font-size: 2.5vh; line-height: 3.2vh; padding: 10px 200px 10px 200px; text-align: left'><p><div style='color: red; display: inline-block;'> <h1>Track Color</h1> </div> changes and <div style='color: red; display: inline-block;'> <h1>ignore Size</h1> </div> changes.</p><p>Press Enter to start the display.</p></div></div>""]","enter","trialStartWaiting","","","","","","","","","","","","","","","","","","","","",""
"html-keyboard-response","37","412437","0.0-31.0","female","51","100","p1.1_65f684e029d7c63f3338aed7","November 29, 2025 at 1:45 PM","November 29, 2025 at 2:01 PM","{""browser"":""Chrome"",""version"":""142""}","null","<p style='color: white; font-size: 50px; text-align: center'>+</p>","null","ITI","","","","","","","","","","","","","","","","","","","","",""
"rhytmicFeatureChangeTask","38","442450","0.0-32.0","female","51","100","p1.1_65f684e029d7c63f3338aed7","November 29, 2025 at 1:45 PM","November 29, 2025 at 2:01 PM","{""browser"":""Chrome"",""version"":""142""}","","","","test","","","450","500","[50,100]","1.2","[10,20]","[60,120]","hsl(210, 100%, 50%)","80","2.625","hsl(290, 100%, 50%)","[{""timeMs"":462,""rectSize"":[60,120]},{""timeMs"":928,""rectSize"":[50,100]},{""timeMs"":1395,""rectSize"":[60,120]},{""timeMs"":1860,""rectSize"":[50,100]},{""timeMs"":2310,""rectSize"":[60,120]},{""timeMs"":2775,""rectSize"":[50,100]},{""timeMs"":3226,""rectSize"":[60,120]},{""timeMs"":3692,""rectSize"":[50,100]},{""timeMs"":4158,""rectSize"":[60,120]},{""timeMs"":4624,""rectSize"":[50,100]},{""timeMs"":5090,""rectSize"":[60,120]},{""timeMs"":5556,""rectSize"":[50,100]},{""timeMs"":6022,""rectSize"":[60,120]},{""timeMs"":6472,""rectSize"":[50,100]},{""timeMs"":6937,""rectSize"":[60,120]},{""timeMs"":7388,""rectSize"":[50,100]},{""timeMs"":7853,""rectSize"":[60,120]},{""timeMs"":8319,""rectSize"":[50,100]},{""timeMs"":8770,""rectSize"":[60,120]},{""timeMs"":9235,""rectSize"":[50,100]},{""timeMs"":9702,""rectSize"":[60,120]},{""timeMs"":10167,""rectSize"":[50,100]},{""timeMs"":10633,""rectSize"":[60,120]},{""timeMs"":11083,""rectSize"":[50,100]},{""timeMs"":11549,""rectSize"":[60,120]},{""timeMs"":12016,""rectSize"":[50,100]},{""timeMs"":12482,""rectSize"":[60,120]},{""timeMs"":12947,""rectSize"":[50,100]},{""timeMs"":13398,""rectSize"":[60,120]},{""timeMs"":13863,""rectSize"":[50,100]},{""timeMs"":14330,""rectSize"":[60,120]},{""timeMs"":14796,""rectSize"":[50,100]},{""timeMs"":15261,""rectSize"":[60,120]},{""timeMs"":15728,""rectSize"":[50,100]},{""timeMs"":16194,""rectSize"":[60,120]},{""timeMs"":16660,""rectSize"":[50,100]},{""timeMs"":17110,""rectSize"":[60,120]},{""timeMs"":17576,""rectSize"":[50,100]},{""timeMs"":18041,""rectSize"":[60,120]},{""timeMs"":18492,""rectSize"":[50,100]},{""timeMs"":18957,""rectSize"":[60,120]},{""timeMs"":19423,""rectSize"":[50,100]},{""timeMs"":19889,""rectSize"":[60,120]},{""timeMs"":20340,""rectSize"":[50,100]},{""timeMs"":20805,""rectSize"":[60,120]},{""timeMs"":21271,""rectSize"":[50,100]},{""timeMs"":21737,""rectSize"":[60,120]},{""timeMs"":22187,""rectSize"":[50,100]},{""timeMs"":22653,""rectSize"":[60,120]},{""timeMs"":23119,""rectSize"":[50,100]},{""timeMs"":23585,""rectSize"":[60,120]},{""timeMs"":24051,""rectSize"":[50,100]},{""timeMs"":24518,""rectSize"":[60,120]},{""timeMs"":24983,""rectSize"":[50,100]},{""timeMs"":25450,""rectSize"":[60,120]},{""timeMs"":25915,""rectSize"":[50,100]},{""timeMs"":26365,""rectSize"":[60,120]},{""timeMs"":26831,""rectSize"":[50,100]},{""timeMs"":27298,""rectSize"":[60,120]},{""timeMs"":27764,""rectSize"":[50,100]},{""timeMs"":28230,""rectSize"":[60,120]},{""timeMs"":28696,""rectSize"":[50,100]},{""timeMs"":29162,""rectSize"":[60,120]},{""timeMs"":29628,""rectSize"":[50,100]}]","[{""timeMs"":513,""colorHsl"":""hsl(290, 100%, 50%)""},{""timeMs"":1028,""colorHsl"":""hsl(210, 100%, 50%)""},{""timeMs"":1528,""colorHsl"":""hsl(290, 100%, 50%)""},{""timeMs"":2044,""colorHsl"":""hsl(210, 100%, 50%)""},{""timeMs"":2559,""colorHsl"":""hsl(290, 100%, 50%)""},{""timeMs"":3075,""colorHsl"":""hsl(210, 100%, 50%)""},{""timeMs"":3592,""colorHsl"":""hsl(290, 100%, 50%)""},{""timeMs"":4107,""colorHsl"":""hsl(210, 100%, 50%)""},{""timeMs"":4608,""colorHsl"":""hsl(290, 100%, 50%)""},{""timeMs"":5123,""colorHsl"":""hsl(210, 100%, 50%)""},{""timeMs"":5623,""colorHsl"":""hsl(290, 100%, 50%)""},{""timeMs"":6139,""colorHsl"":""hsl(210, 100%, 50%)""},{""timeMs"":6655,""colorHsl"":""hsl(290, 100%, 50%)""},{""timeMs"":7171,""colorHsl"":""hsl(210, 100%, 50%)""},{""timeMs"":7688,""colorHsl"":""hsl(290, 100%, 50%)""},{""timeMs"":8203,""colorHsl"":""hsl(210, 100%, 50%)""},{""timeMs"":8719,""colorHsl"":""hsl(290, 100%, 50%)""},{""timeMs"":9235,""colorHsl"":""hsl(210, 100%, 50%)""},{""timeMs"":9751,""colorHsl"":""hsl(290, 100%, 50%)""},{""timeMs"":10267,""colorHsl"":""hsl(210, 100%, 50%)""},{""timeMs"":10767,""colorHsl"":""hsl(290, 100%, 50%)""},{""timeMs"":11283,""colorHsl"":""hsl(210, 100%, 50%)""},{""timeMs"":11799,""colorHsl"":""hsl(290, 100%, 50%)""},{""timeMs"":12315,""colorHsl"":""hsl(210, 100%, 50%)""},{""timeMs"":12831,""colorHsl"":""hsl(290, 100%, 50%)""},{""timeMs"":13347,""colorHsl"":""hsl(210, 100%, 50%)""},{""timeMs"":13863,""colorHsl"":""hsl(290, 100%, 50%)""},{""timeMs"":14379,""colorHsl"":""hsl(210, 100%, 50%)""},{""timeMs"":14895,""colorHsl"":""hsl(290, 100%, 50%)""},{""timeMs"":15395,""colorHsl"":""hsl(210, 100%, 50%)""},{""timeMs"":15910,""colorHsl"":""hsl(290, 100%, 50%)""},{""timeMs"":16411,""colorHsl"":""hsl(210, 100%, 50%)""},{""timeMs"":16926,""colorHsl"":""hsl(290, 100%, 50%)""},{""timeMs"":17443,""colorHsl"":""hsl(210, 100%, 50%)""},{""timeMs"":17958,""colorHsl"":""hsl(290, 100%, 50%)""},{""timeMs"":18458,""colorHsl"":""hsl(210, 100%, 50%)""},{""timeMs"":18973,""colorHsl"":""hsl(290, 100%, 50%)""},{""timeMs"":19473,""colorHsl"":""hsl(210, 100%, 50%)""},{""timeMs"":19989,""colorHsl"":""hsl(290, 100%, 50%)""},{""timeMs"":20489,""colorHsl"":""hsl(210, 100%, 50%)""},{""timeMs"":21004,""colorHsl"":""hsl(290, 100%, 50%)""},{""timeMs"":21504,""colorHsl"":""hsl(210, 100%, 50%)""},{""timeMs"":22020,""colorHsl"":""hsl(290, 100%, 50%)""},{""timeMs"":22536,""colorHsl"":""hsl(210, 100%, 50%)""},{""timeMs"":23053,""colorHsl"":""hsl(290, 100%, 50%)""},{""timeMs"":23569,""colorHsl"":""hsl(210, 100%, 50%)""},{""timeMs"":24085,""colorHsl"":""hsl(290, 100%, 50%)""},{""timeMs"":24601,""colorHsl"":""hsl(210, 100%, 50%)""},{""timeMs"":25117,""colorHsl"":""hsl(290, 100%, 50%)""},{""timeMs"":25634,""colorHsl"":""hsl(210, 100%, 50%)""},{""timeMs"":26150,""colorHsl"":""hsl(290, 100%, 50%)""},{""timeMs"":26665,""colorHsl"":""hsl(210, 100%, 50%)""},{""timeMs"":27181,""colorHsl"":""hsl(290, 100%, 50%)""},{""timeMs"":27697,""colorHsl"":""hsl(210, 100%, 50%)""},{""timeMs"":28214,""colorHsl"":""hsl(290, 100%, 50%)""},{""timeMs"":28730,""colorHsl"":""hsl(210, 100%, 50%)""},{""timeMs"":29245,""colorHsl"":""hsl(290, 100%, 50%)""},{""timeMs"":29762,""colorHsl"":""hsl(210, 100%, 50%)""}]","[{""time_ms"":704},{""time_ms"":1656},{""time_ms"":2663},{""time_ms"":3726},{""time_ms"":4693},{""time_ms"":5816},{""time_ms"":6795},{""time_ms"":7694},{""time_ms"":9163},{""time_ms"":10176},{""time_ms"":11048},{""time_ms"":12028},{""time_ms"":13057},{""time_ms"":14169},{""time_ms"":15211},{""time_ms"":16255},{""time_ms"":17264},{""time_ms"":18333},{""time_ms"":19330},{""time_ms"":20330},{""time_ms"":21280},{""time_ms"":22236},{""time_ms"":23394},{""time_ms"":24378},{""time_ms"":25410},{""time_ms"":26408},{""time_ms"":27427},{""time_ms"":28487},{""time_ms"":29509}]","30000","color","color-size","30010.8","6",""
"html-keyboard-response","39","442858","0.0-33.0-0.0","female","51","100","p1.1_65f684e029d7c63f3338aed7","November 29, 2025 at 1:45 PM","November 29, 2025 at 2:01 PM","{""browser"":""Chrome"",""version"":""142""}","null","[""<div class='jspsych-display-element' style='justify-content: center; align-items: center; min-height: 80vh; width: 100%;'><div style='display: inline-block; margin: 0 auto; color: black; font-size: 2.5vh; line-height: 3.2vh; padding: 10px 200px 10px 200px; text-align: left'><p><div style='color: red; display: inline-block;'> <h1>Track Size</h1> </div> changes and <div style='color: red; display: inline-block;'> <h1>ignore Color</h1> </div> changes.</p><p>Press Enter to start the display.</p></div></div>""]","null","attendedFeatureInstr","","","","","","","","","","","","","","","","","","","","",""
"html-keyboard-response","40","446586","0.0-33.0-1.0","female","51","100","p1.1_65f684e029d7c63f3338aed7","November 29, 2025 at 1:45 PM","November 29, 2025 at 2:01 PM","{""browser"":""Chrome"",""version"":""142""}","3727","[""<div class='jspsych-display-element' style='justify-content: center; align-items: center; min-height: 80vh; width: 100%;'><div style='display: inline-block; margin: 0 auto; color: black; font-size: 2.5vh; line-height: 3.2vh; padding: 10px 200px 10px 200px; text-align: left'><p><div style='color: red; display: inline-block;'> <h1>Track Size</h1> </div> changes and <div style='color: red; display: inline-block;'> <h1>ignore Color</h1> </div> changes.</p><p>Press Enter to start the display.</p></div></div>""]","enter","trialStartWaiting","","","","","","","","","","","","","","","","","","","","",""
"html-keyboard-response","41","447539","0.0-34.0","female","51","100","p1.1_65f684e029d7c63f3338aed7","November 29, 2025 at 1:45 PM","November 29, 2025 at 2:01 PM","{""browser"":""Chrome"",""version"":""142""}","null","<p style='color: white; font-size: 50px; text-align: center'>+</p>","null","ITI","","","","","","","","","","","","","","","","","","","","",""
"rhytmicFeatureChangeTask","42","477545","0.0-35.0","female","51","100","p1.1_65f684e029d7c63f3338aed7","November 29, 2025 at 1:45 PM","November 29, 2025 at 2:01 PM","{""browser"":""Chrome"",""version"":""142""}","","","","test","","","400","350","[50,100]","1.2","[10,20]","[60,120]","hsl(210, 100%, 50%)","80","2.625","hsl(290, 100%, 50%)","[{""timeMs"":402,""rectSize"":[60,120]},{""timeMs"":819,""rectSize"":[50,100]},{""timeMs"":1234,""rectSize"":[60,120]},{""timeMs"":1651,""rectSize"":[50,100]},{""timeMs"":2067,""rectSize"":[60,120]},{""timeMs"":2483,""rectSize"":[50,100]},{""timeMs"":2901,""rectSize"":[60,120]},{""timeMs"":3316,""rectSize"":[50,100]},{""timeMs"":3732,""rectSize"":[60,120]},{""timeMs"":4148,""rectSize"":[50,100]},{""timeMs"":4565,""rectSize"":[60,120]},{""timeMs"":4981,""rectSize"":[50,100]},{""timeMs"":5397,""rectSize"":[60,120]},{""timeMs"":5813,""rectSize"":[50,100]},{""timeMs"":6213,""rectSize"":[60,120]},{""timeMs"":6628,""rectSize"":[50,100]},{""timeMs"":7028,""rectSize"":[60,120]},{""timeMs"":7444,""rectSize"":[50,100]},{""timeMs"":7860,""rectSize"":[60,120]},{""timeMs"":8261,""rectSize"":[50,100]},{""timeMs"":8676,""rectSize"":[60,120]},{""timeMs"":9093,""rectSize"":[50,100]},{""timeMs"":9509,""rectSize"":[60,120]},{""timeMs"":9912,""rectSize"":[50,100]},{""timeMs"":10324,""rectSize"":[60,120]},{""timeMs"":10740,""rectSize"":[50,100]},{""timeMs"":11157,""rectSize"":[60,120]},{""timeMs"":11572,""rectSize"":[50,100]},{""timeMs"":11974,""rectSize"":[60,120]},{""timeMs"":12388,""rectSize"":[50,100]},{""timeMs"":12805,""rectSize"":[60,120]},{""timeMs"":13221,""rectSize"":[50,100]},{""timeMs"":13637,""rectSize"":[60,120]},{""timeMs"":14053,""rectSize"":[50,100]},{""timeMs"":14453,""rectSize"":[60,120]},{""timeMs"":14869,""rectSize"":[50,100]},{""timeMs"":15285,""rectSize"":[60,120]},{""timeMs"":15685,""rectSize"":[50,100]},{""timeMs"":16101,""rectSize"":[60,120]},{""timeMs"":16517,""rectSize"":[50,100]},{""timeMs"":16933,""rectSize"":[60,120]},{""timeMs"":17334,""rectSize"":[50,100]},{""timeMs"":17749,""rectSize"":[60,120]},{""timeMs"":18165,""rectSize"":[50,100]},{""timeMs"":18584,""rectSize"":[60,120]},{""timeMs"":18997,""rectSize"":[50,100]},{""timeMs"":19413,""rectSize"":[60,120]},{""timeMs"":19813,""rectSize"":[50,100]},{""timeMs"":20229,""rectSize"":[60,120]},{""timeMs"":20645,""rectSize"":[50,100]},{""timeMs"":21062,""rectSize"":[60,120]},{""timeMs"":21477,""rectSize"":[50,100]},{""timeMs"":21878,""rectSize"":[60,120]},{""timeMs"":22294,""rectSize"":[50,100]},{""timeMs"":22710,""rectSize"":[60,120]},{""timeMs"":23126,""rectSize"":[50,100]},{""timeMs"":23542,""rectSize"":[60,120]},{""timeMs"":23958,""rectSize"":[50,100]},{""timeMs"":24375,""rectSize"":[60,120]},{""timeMs"":24791,""rectSize"":[50,100]},{""timeMs"":25207,""rectSize"":[60,120]},{""timeMs"":25623,""rectSize"":[50,100]},{""timeMs"":26023,""rectSize"":[60,120]},{""timeMs"":26439,""rectSize"":[50,100]},{""timeMs"":26856,""rectSize"":[60,120]},{""timeMs"":27271,""rectSize"":[50,100]},{""timeMs"":27688,""rectSize"":[60,120]},{""timeMs"":28104,""rectSize"":[50,100]},{""timeMs"":28520,""rectSize"":[60,120]},{""timeMs"":28937,""rectSize"":[50,100]},{""timeMs"":29352,""rectSize"":[60,120]},{""timeMs"":29769,""rectSize"":[50,100]}]","[{""timeMs"":353,""colorHsl"":""hsl(290, 100%, 50%)""},{""timeMs"":718,""colorHsl"":""hsl(210, 100%, 50%)""},{""timeMs"":1068,""colorHsl"":""hsl(290, 100%, 50%)""},{""timeMs"":1434,""colorHsl"":""hsl(210, 100%, 50%)""},{""timeMs"":1801,""colorHsl"":""hsl(290, 100%, 50%)""},{""timeMs"":2167,""colorHsl"":""hsl(210, 100%, 50%)""},{""timeMs"":2533,""colorHsl"":""hsl(290, 100%, 50%)""},{""timeMs"":2901,""colorHsl"":""hsl(210, 100%, 50%)""},{""timeMs"":3266,""colorHsl"":""hsl(290, 100%, 50%)""},{""timeMs"":3632,""colorHsl"":""hsl(210, 100%, 50%)""},{""timeMs"":3998,""colorHsl"":""hsl(290, 100%, 50%)""},{""timeMs"":4348,""colorHsl"":""hsl(210, 100%, 50%)""},{""timeMs"":4714,""colorHsl"":""hsl(290, 100%, 50%)""},{""timeMs"":5080,""colorHsl"":""hsl(210, 100%, 50%)""},{""timeMs"":5447,""colorHsl"":""hsl(290, 100%, 50%)""},{""timeMs"":5813,""colorHsl"":""hsl(210, 100%, 50%)""},{""timeMs"":6179,""colorHsl"":""hsl(290, 100%, 50%)""},{""timeMs"":6530,""colorHsl"":""hsl(210, 100%, 50%)""},{""timeMs"":6895,""colorHsl"":""hsl(290, 100%, 50%)""},{""timeMs"":7261,""colorHsl"":""hsl(210, 100%, 50%)""},{""timeMs"":7627,""colorHsl"":""hsl(290, 100%, 50%)""},{""timeMs"":7993,""colorHsl"":""hsl(210, 100%, 50%)""},{""timeMs"":8343,""colorHsl"":""hsl(290, 100%, 50%)""},{""timeMs"":8710,""colorHsl"":""hsl(210, 100%, 50%)""},{""timeMs"":9060,""colorHsl"":""hsl(290, 100%, 50%)""},{""timeMs"":9425,""colorHsl"":""hsl(210, 100%, 50%)""},{""timeMs"":9792,""colorHsl"":""hsl(290, 100%, 50%)""},{""timeMs"":10157,""colorHsl"":""hsl(210, 100%, 50%)""},{""timeMs"":10507,""colorHsl"":""hsl(290, 100%, 50%)""},{""timeMs"":10873,""colorHsl"":""hsl(210, 100%, 50%)""},{""timeMs"":11224,""colorHsl"":""hsl(290, 100%, 50%)""},{""timeMs"":11589,""colorHsl"":""hsl(210, 100%, 50%)""},{""timeMs"":11955,""colorHsl"":""hsl(290, 100%, 50%)""},{""timeMs"":12305,""colorHsl"":""hsl(210, 100%, 50%)""},{""timeMs"":12672,""colorHsl"":""hsl(290, 100%, 50%)""},{""timeMs"":13038,""colorHsl"":""hsl(210, 100%, 50%)""},{""timeMs"":13403,""colorHsl"":""hsl(290, 100%, 50%)""},{""timeMs"":13754,""colorHsl"":""hsl(210, 100%, 50%)""},{""timeMs"":14120,""colorHsl"":""hsl(290, 100%, 50%)""},{""timeMs"":14486,""colorHsl"":""hsl(210, 100%, 50%)""},{""timeMs"":14853,""colorHsl"":""hsl(290, 100%, 50%)""},{""timeMs"":15218,""colorHsl"":""hsl(210, 100%, 50%)""},{""timeMs"":15568,""colorHsl"":""hsl(290, 100%, 50%)""},{""timeMs"":15934,""colorHsl"":""hsl(210, 100%, 50%)""},{""timeMs"":16300,""colorHsl"":""hsl(290, 100%, 50%)""},{""timeMs"":16651,""colorHsl"":""hsl(210, 100%, 50%)""},{""timeMs"":17018,""colorHsl"":""hsl(290, 100%, 50%)""},{""timeMs"":17383,""colorHsl"":""hsl(210, 100%, 50%)""},{""timeMs"":17749,""colorHsl"":""hsl(290, 100%, 50%)""},{""timeMs"":18115,""colorHsl"":""hsl(210, 100%, 50%)""},{""timeMs"":18481,""colorHsl"":""hsl(290, 100%, 50%)""},{""timeMs"":18831,""colorHsl"":""hsl(210, 100%, 50%)""},{""timeMs"":19181,""colorHsl"":""hsl(290, 100%, 50%)""},{""timeMs"":19548,""colorHsl"":""hsl(210, 100%, 50%)""},{""timeMs"":19913,""colorHsl"":""hsl(290, 100%, 50%)""},{""timeMs"":20280,""colorHsl"":""hsl(210, 100%, 50%)""},{""timeMs"":20645,""colorHsl"":""hsl(290, 100%, 50%)""},{""timeMs"":21012,""colorHsl"":""hsl(210, 100%, 50%)""},{""timeMs"":21378,""colorHsl"":""hsl(290, 100%, 50%)""},{""timeMs"":21728,""colorHsl"":""hsl(210, 100%, 50%)""},{""timeMs"":22093,""colorHsl"":""hsl(290, 100%, 50%)""},{""timeMs"":22443,""colorHsl"":""hsl(210, 100%, 50%)""},{""timeMs"":22809,""colorHsl"":""hsl(290, 100%, 50%)""},{""timeMs"":23176,""colorHsl"":""hsl(210, 100%, 50%)""},{""timeMs"":23542,""colorHsl"":""hsl(290, 100%, 50%)""},{""timeMs"":23909,""colorHsl"":""hsl(210, 100%, 50%)""},{""timeMs"":24275,""colorHsl"":""hsl(290, 100%, 50%)""},{""timeMs"":24641,""colorHsl"":""hsl(210, 100%, 50%)""},{""timeMs"":25010,""colorHsl"":""hsl(290, 100%, 50%)""},{""timeMs"":25373,""colorHsl"":""hsl(210, 100%, 50%)""},{""timeMs"":25739,""colorHsl"":""hsl(290, 100%, 50%)""},{""timeMs"":26106,""colorHsl"":""hsl(210, 100%, 50%)""},{""timeMs"":26456,""colorHsl"":""hsl(290, 100%, 50%)""},{""timeMs"":26822,""colorHsl"":""hsl(210, 100%, 50%)""},{""timeMs"":27172,""colorHsl"":""hsl(290, 100%, 50%)""},{""timeMs"":27538,""colorHsl"":""hsl(210, 100%, 50%)""},{""timeMs"":27904,""colorHsl"":""hsl(290, 100%, 50%)""},{""timeMs"":28270,""colorHsl"":""hsl(210, 100%, 50%)""},{""timeMs"":28637,""colorHsl"":""hsl(290, 100%, 50%)""},{""timeMs"":29003,""colorHsl"":""hsl(210, 100%, 50%)""},{""timeMs"":29369,""colorHsl"":""hsl(290, 100%, 50%)""},{""timeMs"":29719,""colorHsl"":""hsl(210, 100%, 50%)""}]","[{""time_ms"":829},{""time_ms"":2345},{""time_ms"":3175},{""time_ms"":4096},{""time_ms"":4990},{""time_ms"":5854},{""time_ms"":6529},{""time_ms"":7437},{""time_ms"":8268},{""time_ms"":9102},{""time_ms"":9939},{""time_ms"":10701},{""time_ms"":11465},{""time_ms"":12269},{""time_ms"":13068},{""time_ms"":13847},{""time_ms"":14612},{""time_ms"":15490},{""time_ms"":16278},{""time_ms"":17046},{""time_ms"":17977},{""time_ms"":18707},{""time_ms"":19501},{""time_ms"":20294},{""time_ms"":21174},{""time_ms"":21952},{""time_ms"":22786},{""time_ms"":23620},{""time_ms"":24455},{""time_ms"":25233},{""time_ms"":26163},{""time_ms"":26954},{""time_ms"":27950},{""time_ms"":28877},{""time_ms"":29808}]","30000","size","color-size","30001.5","7",""
"html-keyboard-response","43","477950","0.0-36.0-0.0","female","51","100","p1.1_65f684e029d7c63f3338aed7","November 29, 2025 at 1:45 PM","November 29, 2025 at 2:01 PM","{""browser"":""Chrome"",""version"":""142""}","null","[""<div class='jspsych-display-element' style='justify-content: center; align-items: center; min-height: 80vh; width: 100%;'><div style='display: inline-block; margin: 0 auto; color: black; font-size: 2.5vh; line-height: 3.2vh; padding: 10px 200px 10px 200px; text-align: left'><p><div style='color: red; display: inline-block;'> <h1>Track Color</h1> </div> changes and <div style='color: red; display: inline-block;'> <h1>ignore Size</h1> </div> changes.</p><p>Press Enter to start the display.</p></div></div>""]","null","attendedFeatureInstr","","","","","","","","","","","","","","","","","","","","",""
"html-keyboard-response","44","480696","0.0-36.0-1.0","female","51","100","p1.1_65f684e029d7c63f3338aed7","November 29, 2025 at 1:45 PM","November 29, 2025 at 2:01 PM","{""browser"":""Chrome"",""version"":""142""}","2746","[""<div class='jspsych-display-element' style='justify-content: center; align-items: center; min-height: 80vh; width: 100%;'><div style='display: inline-block; margin: 0 auto; color: black; font-size: 2.5vh; line-height: 3.2vh; padding: 10px 200px 10px 200px; text-align: left'><p><div style='color: red; display: inline-block;'> <h1>Track Color</h1> </div> changes and <div style='color: red; display: inline-block;'> <h1>ignore Size</h1> </div> changes.</p><p>Press Enter to start the display.</p></div></div>""]","enter","trialStartWaiting","","","","","","","","","","","","","","","","","","","","",""
"html-keyboard-response","45","481306","0.0-37.0","female","51","100","p1.1_65f684e029d7c63f3338aed7","November 29, 2025 at 1:45 PM","November 29, 2025 at 2:01 PM","{""browser"":""Chrome"",""version"":""142""}","null","<p style='color: white; font-size: 50px; text-align: center'>+</p>","null","ITI","","","","","","","","","","","","","","","","","","","","",""
